sec,nanosec,child_frame_id,orientation_x,orientation_y,orientation_z,orientation_w,,,,,,,,,,twist_angular_x,twist_angular_y,twist_angular_z,,,,,,,,,,linear_acceleration_x,linear_acceleration_y,linear_acceleration_z,,,,,,,,,
1741043606,797834069,base_link,0.000285119,0.004047594,0.91717875,-0.39845556,0,0,0,0,0,0,0,0,0,-0.122070313,-0.366210938,-0.122070313,0,0,0,0,0,0,0,0,0,0.00390625,0.007324219,1.014160156,0,0,0,0,0,0,0,0,0
1741043606,822590659,base_link,0.00067006,0.003835503,0.9171956181526184,-0.398418158,0,0,0,0,0,0,0,0,0,-0.305175781,-0.427246094,-0.427246094,0,0,0,0,0,0,0,0,0,0.004394531,0.006835938,1.013671875,0,0,0,0,0,0,0,0,0
1741043606,842691902,base_link,0.000365118,0.002843774,0.9172132015228271,-0.398386538,0,0,0,0,0,0,0,0,0,-0.305175781,-0.183105469,-0.305175781,0,0,0,0,0,0,0,0,0,0.002929688,0.005859375,1.014648438,0,0,0,0,0,0,0,0,0
1741043606,863304319,base_link,0.000500754,0.003410384,0.9172335863113403,-0.398334861,0,0,0,0,0,0,0,0,0,-0.061035156,0.122070313,-0.183105469,0,0,0,0,0,0,0,0,0,0.003417969,0.005859375,1.012207031,0,0,0,0,0,0,0,0,0
1741043606,882906389,base_link,-0.000210117,0.003871093,0.9172547459602356,-0.398282349,0,0,0,0,0,0,0,0,0,-0.122070313,0,-0.305175781,0,0,0,0,0,0,0,0,0,0.002929688,0.007324219,1.015136719,0,0,0,0,0,0,0,0,0
1741043606,903823898,base_link,0.000532689,0.004284744,0.917266846,-0.398249954,0,0,0,0,0,0,0,0,0,-0.061035156,-0.427246094,-0.244140625,0,0,0,0,0,0,0,0,0,0.00390625,0.0078125,1.014648438,0,0,0,0,0,0,0,0,0
1741043606,922879626,base_link,0.000524103,0.004256182,0.9172903299331665,-0.398195982,0,0,0,0,0,0,0,0,0,-0.122070313,-0.427246094,-0.48828125,0,0,0,0,0,0,0,0,0,0.004394531,0.007324219,1.015625,0,0,0,0,0,0,0,0,0
1741043606,939304381,base_link,0.000794261,0.00391572,0.917302668,-0.398170799,0,0,0,0,0,0,0,0,0,-0.122070313,0.061035156,-0.305175781,0,0,0,0,0,0,0,0,0,0.004882813,0.006835938,1.015136719,0,0,0,0,0,0,0,0,0
1741043606,959036116,base_link,0.000177919,0.004395749,0.9173117876052856,-0.398145407,0,0,0,0,0,0,0,0,0,-0.122070313,0.305175781,0,0,0,0,0,0,0,0,0,0,0.00390625,0.0078125,1.014160156,0,0,0,0,0,0,0,0,0
1741043606,982728247,base_link,0.000491718,0.003972329,0.9173351526260376,-0.398095906,0,0,0,0,0,0,0,0,0,-0.183105469,0,-0.122070313,0,0,0,0,0,0,0,0,0,0.004394531,0.007324219,1.012695313,0,0,0,0,0,0,0,0,0
1741043607,2887027,base_link,-6.53E-05,0.004510886,0.917355478,-0.398043394,0,0,0,0,0,0,0,0,0,-0.183105469,-0.427246094,-0.366210938,0,0,0,0,0,0,0,0,0,0.003417969,0.008300781,1.015136719,0,0,0,0,0,0,0,0,0
1741043607,22983790,base_link,-0.000515428,0.003970318,0.9173754453659058,-0.398002893,0,0,0,0,0,0,0,0,0,-0.122070313,-0.48828125,-0.305175781,0,0,0,0,0,0,0,0,0,0.002441406,0.0078125,1.014648438,0,0,0,0,0,0,0,0,0
1741043607,42836455,base_link,0.000639988,0.003196222,0.9173957109451294,-0.397963107,0,0,0,0,0,0,0,0,0,-0.061035156,-0.122070313,-0.366210938,0,0,0,0,0,0,0,0,0,0.00390625,0.005371094,1.014648438,0,0,0,0,0,0,0,0,0
1741043607,62953442,base_link,0.000345391,0.004006237,0.9174076318740845,-0.397928536,0,0,0,0,0,0,0,0,0,-0.183105469,0.244140625,-0.122070313,0,0,0,0,0,0,0,0,0,0.00390625,0.006835938,1.015136719,0,0,0,0,0,0,0,0,0
1741043607,82708634,base_link,-0.000424731,0.003888795,0.9174317121505737,-0.397874027,0,0,0,0,0,0,0,0,0,-0.122070313,-0.061035156,-0.122070313,0,0,0,0,0,0,0,0,0,0.002441406,0.007324219,1.012695313,0,0,0,0,0,0,0,0,0
1741043607,97720574,base_link,0.000720137,0.004452694,0.917453408,-0.397817701,0,0,0,0,0,0,0,0,0,-0.305175781,-0.48828125,-0.427246094,0,0,0,0,0,0,0,0,0,0.004882813,0.0078125,1.012695313,0,0,0,0,0,0,0,0,0
1741043607,117995323,base_link,2.9165483283577487e-05,0.004670312,0.9174714684486389,-0.397774279,0,0,0,0,0,0,0,0,0,-0.183105469,-0.366210938,-0.366210938,0,0,0,0,0,0,0,0,0,0.00390625,0.008789063,1.015625,0,0,0,0,0,0,0,0,0
1741043607,142639624,base_link,-0.000526899,0.004437894,0.9174912571907043,-0.397730798,0,0,0,0,0,0,0,0,0,-0.183105469,-0.061035156,-0.305175781,0,0,0,0,0,0,0,0,0,0.002929688,0.008300781,1.014648438,0,0,0,0,0,0,0,0,0
1741043607,158882617,base_link,-0.000569241,0.003781068,0.9175121188163757,-0.3976897,0,0,0,0,0,0,0,0,0,0,0.183105469,-0.122070313,0,0,0,0,0,0,0,0,0,0.001953125,0.007324219,1.015136719,0,0,0,0,0,0,0,0,0
1741043607,183138786,base_link,0.000328025,0.00381042,0.9175246357917786,-0.397660702,0,0,0,0,0,0,0,0,0,-0.183105469,0.061035156,-0.122070313,0,0,0,0,0,0,0,0,0,0.00390625,0.006835938,1.015625,0,0,0,0,0,0,0,0,0
1741043607,198298375,base_link,0.00060398,0.004986062,0.917536736,-0.397619456,0,0,0,0,0,0,0,0,0,-0.244140625,-0.549316406,-0.244140625,0,0,0,0,0,0,0,0,0,0.004882813,0.008300781,1.012695313,0,0,0,0,0,0,0,0,0
1741043607,224246402,base_link,0.000401866,0.004229957,0.9175626039505005,-0.397568673,0,0,0,0,0,0,0,0,0,-0.305175781,-0.366210938,-0.427246094,0,0,0,0,0,0,0,0,0,0.00390625,0.006835938,1.014648438,0,0,0,0,0,0,0,0,0
1741043607,242579786,base_link,5.163326932233758e-05,0.00423962,0.9175800681114197,-0.39752847,0,0,0,0,0,0,0,0,0,-0.122070313,0,-0.305175781,0,0,0,0,0,0,0,0,0,0.003417969,0.007324219,1.014648438,0,0,0,0,0,0,0,0,0
1741043607,263117099,base_link,8.691475522937253e-05,0.004256574,0.9175981283187866,-0.397486717,0,0,0,0,0,0,0,0,0,0,0.122070313,0.061035156,0,0,0,0,0,0,0,0,0,0.002929688,0.0078125,1.015136719,0,0,0,0,0,0,0,0,0
1741043607,279877249,base_link,0.000167083,0.003847952,0.9176251888275146,-0.397428215,0,0,0,0,0,0,0,0,0,-0.122070313,0,-0.244140625,0,0,0,0,0,0,0,0,0,0.00390625,0.006347656,1.013671875,0,0,0,0,0,0,0,0,0
1741043607,302751739,base_link,0.000914341,0.0045599,0.9176349639892578,-0.397396982,0,0,0,0,0,0,0,0,0,-0.061035156,-0.305175781,-0.427246094,0,0,0,0,0,0,0,0,0,0.005859375,0.007324219,1.014648438,0,0,0,0,0,0,0,0,0
1741043607,322768790,base_link,-5.21E-05,0.00410521,0.9176484942436218,-0.397372156,0,0,0,0,0,0,0,0,0,-0.061035156,-0.366210938,-0.244140625,0,0,0,0,0,0,0,0,0,0.003417969,0.0078125,1.012695313,0,0,0,0,0,0,0,0,0
1741043607,342500429,base_link,0.000243907,0.004249807,0.9176622629165649,-0.39733848,0,0,0,0,0,0,0,0,0,-0.183105469,0.122070313,-0.244140625,0,0,0,0,0,0,0,0,0,0.004394531,0.0078125,1.015136719,0,0,0,0,0,0,0,0,0
1741043607,363435825,base_link,0.000243435,0.003253686,0.917684793,-0.397296101,0,0,0,0,0,0,0,0,0,-0.244140625,0.183105469,-0.183105469,0,0,0,0,0,0,0,0,0,0.003417969,0.006347656,1.014160156,0,0,0,0,0,0,0,0,0
1741043607,383264394,base_link,-2.46E-05,0.00390043,0.9177044630050659,-0.397244871,0,0,0,0,0,0,0,0,0,-0.183105469,-0.122070313,-0.061035156,0,0,0,0,0,0,0,0,0,0.003417969,0.006835938,1.01171875,0,0,0,0,0,0,0,0,0
1741043607,398006315,base_link,0.000183938,0.003527676,0.9177245497703552,-0.397201717,0,0,0,0,0,0,0,0,0,-0.183105469,-0.427246094,-0.427246094,0,0,0,0,0,0,0,0,0,0.002929688,0.006835938,1.013183594,0,0,0,0,0,0,0,0,0
1741043607,422472214,base_link,0.00100327,0.004598692,0.9177303314208984,-0.397176117,0,0,0,0,0,0,0,0,0,-0.183105469,-0.244140625,-0.366210938,0,0,0,0,0,0,0,0,0,0.004882813,0.0078125,1.015136719,0,0,0,0,0,0,0,0,0
1741043607,437795357,base_link,5.420463639893569e-05,0.004163675,0.9177522659301758,-0.397131681,0,0,0,0,0,0,0,0,0,-0.183105469,0,-0.183105469,0,0,0,0,0,0,0,0,0,0.00390625,0.0078125,1.013183594,0,0,0,0,0,0,0,0,0
1741043607,462697133,base_link,0.000248235,0.003303479,0.9177730679512024,-0.397091627,0,0,0,0,0,0,0,0,0,-0.183105469,0.244140625,-0.244140625,0,0,0,0,0,0,0,0,0,0.002929688,0.005859375,1.015625,0,0,0,0,0,0,0,0,0
1741043607,487006326,base_link,-4.19E-05,0.004432825,0.9177927374839783,-0.397034913,0,0,0,0,0,0,0,0,0,-0.244140625,-0.061035156,-0.244140625,0,0,0,0,0,0,0,0,0,0.002929688,0.0078125,1.012695313,0,0,0,0,0,0,0,0,0
1741043607,497799148,base_link,0.000879854,0.004111162,0.9178134799003601,-0.396989703,0,0,0,0,0,0,0,0,0,-0.122070313,-0.48828125,-0.427246094,0,0,0,0,0,0,0,0,0,0.004882813,0.006835938,1.011230469,0,0,0,0,0,0,0,0,0
1741043607,523002111,base_link,0.000712768,0.004936379,0.917824388,-0.396955341,0,0,0,0,0,0,0,0,0,-0.061035156,-0.061035156,-0.427246094,0,0,0,0,0,0,0,0,0,0.004882813,0.008300781,1.014648438,0,0,0,0,0,0,0,0,0
1741043607,542730326,base_link,0.000407679,0.003854204,0.9178746938705444,-0.396851569,0,0,0,0,0,0,0,0,0,0.061035156,0.915527344,-1.098632813,0,0,0,0,0,0,0,0,0,0.003417969,0.005859375,1.013671875,0,0,0,0,0,0,0,0,0
1741043607,563343927,base_link,-0.000857477,0.002584782,0.917945921,-0.396696329,0,0,0,0,0,0,0,0,0,0.061035156,1.220703125,-0.732421875,0,0,0,0,0,0,0,0,0,-0.001464844,0.005371094,1.013671875,0,0,0,0,0,0,0,0,0
1741043607,583341329,base_link,0.000441274,0.003148366,0.9180881977081299,-0.396363318,0,0,0,0,0,0,0,0,0,-0.244140625,1.770019531,-2.685546875,0,0,0,0,0,0,0,0,0,0.010742188,0.002929688,1.016113281,0,0,0,0,0,0,0,0,0
1741043607,602528738,base_link,0.001269959,0.002056537,0.9183451533317566,-0.395773232,0,0,0,0,0,0,0,0,0,-0.305175781,2.44140625,-4.516601563,0,0,0,0,0,0,0,0,0,0.002929688,-0.000976563,1.012695313,0,0,0,0,0,0,0,0,0
1741043607,622510077,base_link,-0.000418127,0.00080296,0.9186649322509766,-0.395036668,0,0,0,0,0,0,0,0,0,-0.732421875,1.770019531,-4.455566406,0,0,0,0,0,0,0,0,0,-0.020996094,-0.000488281,1.013183594,0,0,0,0,0,0,0,0,0
1741043607,642379381,base_link,-0.000829603,-6.73E-05,0.9190057516098022,-0.394243479,0,0,0,0,0,0,0,0,0,-0.244140625,1.647949219,-5.493164063,0,0,0,0,0,0,0,0,0,0.0078125,0.000976563,1.012695313,0,0,0,0,0,0,0,0,0
1741043607,663603453,base_link,-0.000127867,0.000935995,0.9193843007087708,-0.393359572,0,0,0,0,0,0,0,0,0,-0.061035156,0.732421875,-4.333496094,0,0,0,0,0,0,0,0,0,0.000488281,0.002929688,1.009765625,0,0,0,0,0,0,0,0,0
1741043607,685673614,base_link,-0.001768468,0.000782596,0.9195131659507751,-0.393054485,0,0,0,0,0,0,0,0,0,0.183105469,-0.9765625,-0.854492188,0,0,0,0,0,0,0,0,0,-0.005371094,0.005371094,1.013671875,0,0,0,0,0,0,0,0,0
1741043607,698179350,base_link,-0.000430195,0.002042433,0.9194813370704651,-0.393128097,0,0,0,0,0,0,0,0,0,0.305175781,0.427246094,1.037597656,0,0,0,0,0,0,0,0,0,0.030273438,0.012695313,1.01953125,0,0,0,0,0,0,0,0,0
1741043607,722575105,base_link,0.000243983,0.003411802,0.919425905,-0.393248379,0,0,0,0,0,0,0,0,0,-0.549316406,0.549316406,0.549316406,0,0,0,0,0,0,0,0,0,0.009277344,0.020507813,1.012695313,0,0,0,0,0,0,0,0,0
1741043607,738122506,base_link,-0.001377522,0.003778792,0.9194314479827881,-0.393229961,0,0,0,0,0,0,0,0,0,-0.305175781,0.122070313,-0.427246094,0,0,0,0,0,0,0,0,0,-0.023925781,0.017578125,1.013671875,0,0,0,0,0,0,0,0,0
1741043607,758333831,base_link,-0.002994806,0.003811583,0.9194769263267517,-0.393114269,0,0,0,0,0,0,0,0,0,0,-0.610351563,-0.671386719,0,0,0,0,0,0,0,0,0,-0.012207031,0.015625,1.014160156,0,0,0,0,0,0,0,0,0
1741043607,787136321,base_link,-0.001839572,0.005246958,0.9195086359977722,-0.393030614,0,0,0,0,0,0,0,0,0,-0.305175781,0.122070313,-0.061035156,0,0,0,0,0,0,0,0,0,0.018066406,0.012695313,1.018554688,0,0,0,0,0,0,0,0,0
1741043607,802370887,base_link,-0.000617388,0.005543264,0.9195065498352051,-0.393035024,0,0,0,0,0,0,0,0,0,-0.061035156,-0.061035156,-0.061035156,0,0,0,0,0,0,0,0,0,0.009277344,0.008789063,1.016113281,0,0,0,0,0,0,0,0,0
1741043607,822638596,base_link,-0.001610136,0.004354961,0.9195152521133423,-0.393027067,0,0,0,0,0,0,0,0,0,-0.244140625,0,-0.122070313,0,0,0,0,0,0,0,0,0,-0.008789063,0.008300781,1.0078125,0,0,0,0,0,0,0,0,0
1741043607,842927042,base_link,-0.002677574,0.003018817,0.9195469617843628,-0.392959416,0,0,0,0,0,0,0,0,0,-0.244140625,-0.183105469,-0.244140625,0,0,0,0,0,0,0,0,0,-0.005859375,0.004394531,1.016113281,0,0,0,0,0,0,0,0,0
1741043607,862649881,base_link,-0.001182884,0.002274495,0.9195787310600281,-0.392897397,0,0,0,0,0,0,0,0,0,-0.061035156,-0.061035156,-0.183105469,0,0,0,0,0,0,0,0,0,0.00390625,0.002929688,1.018066406,0,0,0,0,0,0,0,0,0
1741043607,882596819,base_link,0.000492771,0.001986658,0.9195983409881592,-0.392854869,0,0,0,0,0,0,0,0,0,-0.061035156,-0.122070313,-0.122070313,0,0,0,0,0,0,0,0,0,0.002929688,0.002441406,1.009765625,0,0,0,0,0,0,0,0,0
1741043607,902910928,base_link,-0.00078009,0.000971383,0.9196157455444336,-0.392817169,0,0,0,0,0,0,0,0,0,-0.122070313,-0.366210938,-0.48828125,0,0,0,0,0,0,0,0,0,-0.002441406,0.002441406,1.012695313,0,0,0,0,0,0,0,0,0
1741043607,922567783,base_link,-0.001686819,0.001261836,0.919630229,-0.392779827,0,0,0,0,0,0,0,0,0,-0.183105469,-0.061035156,-0.48828125,0,0,0,0,0,0,0,0,0,-0.001464844,0.00390625,1.016113281,0,0,0,0,0,0,0,0,0
1741043607,942562913,base_link,-9.18E-05,0.002014894,0.9196470379829407,-0.392740875,0,0,0,0,0,0,0,0,0,-0.122070313,0.183105469,-0.122070313,0,0,0,0,0,0,0,0,0,0.003417969,0.004394531,1.014160156,0,0,0,0,0,0,0,0,0
1741043607,962910687,base_link,-0.000531536,0.00327002,0.919660211,-0.392701268,0,0,0,0,0,0,0,0,0,-0.183105469,0.122070313,-0.061035156,0,0,0,0,0,0,0,0,0,0,0.008300781,1.009277344,0,0,0,0,0,0,0,0,0
1741043607,983362590,base_link,-0.00219302,0.003527612,0.9196805953979492,-0.392645538,0,0,0,0,0,0,0,0,0,-0.061035156,-0.061035156,-0.244140625,0,0,0,0,0,0,0,0,0,-0.002929688,0.008789063,1.014160156,0,0,0,0,0,0,0,0,0
1741043608,2657425,base_link,-0.001766707,0.00383557,0.919701338,-0.392596155,0,0,0,0,0,0,0,0,0,-0.061035156,-0.366210938,-0.366210938,0,0,0,0,0,0,0,0,0,0.000488281,0.008300781,1.015136719,0,0,0,0,0,0,0,0,0
1741043608,22414729,base_link,-0.001310775,0.0040762,0.919717014,-0.392558634,0,0,0,0,0,0,0,0,0,-0.122070313,-0.366210938,-0.305175781,0,0,0,0,0,0,0,0,0,0.000976563,0.008789063,1.01171875,0,0,0,0,0,0,0,0,0
1741043608,37456909,base_link,-0.001670529,0.003251334,0.9197298288345337,-0.39253518,0,0,0,0,0,0,0,0,0,-0.244140625,-0.061035156,-0.427246094,0,0,0,0,0,0,0,0,0,-0.000488281,0.0078125,1.013671875,0,0,0,0,0,0,0,0,0
1741043608,60571049,base_link,-0.001700905,0.003504531,0.9197435975074768,-0.392500371,0,0,0,0,0,0,0,0,0,-0.183105469,0.122070313,0.061035156,0,0,0,0,0,0,0,0,0,-0.000488281,0.0078125,1.015136719,0,0,0,0,0,0,0,0,0
1741043608,83436386,base_link,-0.000880089,0.00312529,0.9197669625282288,-0.392451584,0,0,0,0,0,0,0,0,0,-0.183105469,0.061035156,-0.122070313,0,0,0,0,0,0,0,0,0,0.000976563,0.006835938,1.013183594,0,0,0,0,0,0,0,0,0
1741043608,103432285,base_link,-0.001273932,0.003433093,0.9197862148284912,-0.392402798,0,0,0,0,0,0,0,0,0,-0.061035156,-0.305175781,-0.305175781,0,0,0,0,0,0,0,0,0,0.000488281,0.0078125,1.014160156,0,0,0,0,0,0,0,0,0
1741043608,122546541,base_link,-0.001871442,0.002987705,0.9198098182678223,-0.392348707,0,0,0,0,0,0,0,0,0,-0.183105469,-0.427246094,-0.366210938,0,0,0,0,0,0,0,0,0,-0.000976563,0.007324219,1.012695313,0,0,0,0,0,0,0,0,0
1741043608,144038072,base_link,-0.000773905,0.003049305,0.9198264479637146,-0.392312884,0,0,0,0,0,0,0,0,0,-0.244140625,-0.183105469,-0.305175781,0,0,0,0,0,0,0,0,0,0.000488281,0.006347656,1.013183594,0,0,0,0,0,0,0,0,0
1741043608,162626499,base_link,-0.001928608,0.003182524,0.9198397397994995,-0.392276794,0,0,0,0,0,0,0,0,0,-0.061035156,0.122070313,-0.244140625,0,0,0,0,0,0,0,0,0,-0.000488281,0.007324219,1.014160156,0,0,0,0,0,0,0,0,0
1741043608,182909440,base_link,-0.001709599,0.003156635,0.9198598861694336,-0.392230779,0,0,0,0,0,0,0,0,0,0,-0.061035156,-0.183105469,0,0,0,0,0,0,0,0,0,-0.000488281,0.0078125,1.013671875,0,0,0,0,0,0,0,0,0
1741043608,202451477,base_link,-0.00203033,0.003264345,0.9198772311210632,-0.392187685,0,0,0,0,0,0,0,0,0,-0.122070313,-0.305175781,-0.366210938,0,0,0,0,0,0,0,0,0,-0.000976563,0.0078125,1.013671875,0,0,0,0,0,0,0,0,0
1741043608,222894932,base_link,-0.001345956,0.003152184,0.9198945164680481,-0.392150909,0,0,0,0,0,0,0,0,0,-0.244140625,-0.427246094,-0.366210938,0,0,0,0,0,0,0,0,0,0,0.006835938,1.013671875,0,0,0,0,0,0,0,0,0
1741043608,242667596,base_link,-0.001182568,0.002572611,0.9199151396751404,-0.392107338,0,0,0,0,0,0,0,0,0,-0.061035156,-0.244140625,-0.366210938,0,0,0,0,0,0,0,0,0,0,0.005859375,1.013671875,0,0,0,0,0,0,0,0,0
1741043608,262975210,base_link,-0.001260866,0.003194831,0.9199289083480835,-0.392070353,0,0,0,0,0,0,0,0,0,-0.183105469,0.122070313,-0.122070313,0,0,0,0,0,0,0,0,0,0,0.006835938,1.012207031,0,0,0,0,0,0,0,0,0
1741043608,283795821,base_link,-0.002224883,0.00297695,0.919948161,-0.392022461,0,0,0,0,0,0,0,0,0,0,0,-0.061035156,0,0,0,0,0,0,0,0,0,-0.001464844,0.007324219,1.014648438,0,0,0,0,0,0,0,0,0
1741043608,303741766,base_link,-0.001499515,0.002392944,0.9199696779251099,-0.391979575,0,0,0,0,0,0,0,0,0,-0.183105469,-0.305175781,-0.366210938,0,0,0,0,0,0,0,0,0,-0.001464844,0.005371094,1.013183594,0,0,0,0,0,0,0,0,0
1741043608,322683701,base_link,-0.000752753,0.002591389,0.9199879765510559,-0.391937256,0,0,0,0,0,0,0,0,0,-0.183105469,-0.427246094,-0.549316406,0,0,0,0,0,0,0,0,0,0.000976563,0.005859375,1.013183594,0,0,0,0,0,0,0,0,0
1741043608,339941649,base_link,-0.00141535,0.003166799,0.9200010299682617,-0.391900778,0,0,0,0,0,0,0,0,0,-0.183105469,-0.183105469,-0.305175781,0,0,0,0,0,0,0,0,0,0.000488281,0.007324219,1.012695313,0,0,0,0,0,0,0,0,0
1741043608,362498568,base_link,-0.000619449,0.003934441,0.9200219511985779,-0.391846567,0,0,0,0,0,0,0,0,0,-0.122070313,0.122070313,-0.244140625,0,0,0,0,0,0,0,0,0,0.001953125,0.0078125,1.013183594,0,0,0,0,0,0,0,0,0
1741043608,382374336,base_link,-0.000915381,0.003289582,0.920046329,-0.39179486,0,0,0,0,0,0,0,0,0,-0.183105469,0.122070313,-0.183105469,0,0,0,0,0,0,0,0,0,0.000976563,0.006835938,1.012207031,0,0,0,0,0,0,0,0,0
1741043608,402407323,base_link,-0.001247748,0.002432856,0.9200688004493713,-0.391747266,0,0,0,0,0,0,0,0,0,-0.122070313,-0.244140625,-0.244140625,0,0,0,0,0,0,0,0,0,0,0.005859375,1.014160156,0,0,0,0,0,0,0,0,0
1741043608,422412341,base_link,-0.001326505,0.003299932,0.9200860261917114,-0.391700417,0,0,0,0,0,0,0,0,0,-0.244140625,-0.48828125,-0.48828125,0,0,0,0,0,0,0,0,0,0,0.006347656,1.01171875,0,0,0,0,0,0,0,0,0
1741043608,442389871,base_link,-0.00104225,0.002453934,0.9200991988182068,-0.391676575,0,0,0,0,0,0,0,0,0,-0.305175781,-0.061035156,-0.305175781,0,0,0,0,0,0,0,0,0,0,0.005371094,1.010742188,0,0,0,0,0,0,0,0,0
1741043608,463097073,base_link,-0.001121727,0.002609809,0.9201155304908752,-0.391636968,0,0,0,0,0,0,0,0,0,-0.183105469,0.122070313,0,0,0,0,0,0,0,0,0,0,0,0.005859375,1.013183594,0,0,0,0,0,0,0,0,0
1741043608,482750408,base_link,-0.001138603,0.002503708,0.9201367497444153,-0.391587615,0,0,0,0,0,0,0,0,0,-0.183105469,-0.122070313,-0.183105469,0,0,0,0,0,0,0,0,0,-0.000488281,0.006347656,1.012207031,0,0,0,0,0,0,0,0,0
1741043608,502533792,base_link,-0.001187528,0.002967177,0.9201563596725464,-0.391538084,0,0,0,0,0,0,0,0,0,-0.122070313,-0.366210938,-0.48828125,0,0,0,0,0,0,0,0,0,0.000488281,0.006347656,1.013671875,0,0,0,0,0,0,0,0,0
1741043608,522430713,base_link,-0.001967155,0.003264233,0.9201678037643433,-0.391505688,0,0,0,0,0,0,0,0,0,-0.122070313,-0.427246094,-0.183105469,0,0,0,0,0,0,0,0,0,-0.000976563,0.007324219,1.012695313,0,0,0,0,0,0,0,0,0
1741043608,543160795,base_link,-0.001600583,0.003394366,0.9201831817626953,-0.391470075,0,0,0,0,0,0,0,0,0,-0.244140625,-0.183105469,-0.244140625,0,0,0,0,0,0,0,0,0,-0.000488281,0.007324219,1.013671875,0,0,0,0,0,0,0,0,0
1741043608,562306252,base_link,-0.001437303,0.003091553,0.9202043414115906,-0.391423702,0,0,0,0,0,0,0,0,0,-0.061035156,0.183105469,-0.122070313,0,0,0,0,0,0,0,0,0,0,0.006835938,1.015625,0,0,0,0,0,0,0,0,0
1741043608,582554601,base_link,-0.00197672,0.002346989,0.9202301502227783,-0.391365647,0,0,0,0,0,0,0,0,0,-0.122070313,0,-0.183105469,0,0,0,0,0,0,0,0,0,-0.001464844,0.005859375,1.013183594,0,0,0,0,0,0,0,0,0
1741043608,602498370,base_link,-0.001393592,0.003337558,0.9202501773834229,-0.39131397,0,0,0,0,0,0,0,0,0,-0.183105469,-0.366210938,-0.48828125,0,0,0,0,0,0,0,0,0,0,0.007324219,1.012207031,0,0,0,0,0,0,0,0,0
1741043608,622708703,base_link,-0.000804015,0.002882716,0.9202638864517212,-0.391287029,0,0,0,0,0,0,0,0,0,-0.183105469,-0.305175781,-0.366210938,0,0,0,0,0,0,0,0,0,0.000488281,0.005859375,1.01171875,0,0,0,0,0,0,0,0,0
1741043608,642511447,base_link,-0.002444678,0.002622023,0.9202826023101807,-0.391238034,0,0,0,0,0,0,0,0,0,-0.183105469,-0.061035156,-0.305175781,0,0,0,0,0,0,0,0,0,-0.001953125,0.006347656,1.013671875,0,0,0,0,0,0,0,0,0
1741043608,662670643,base_link,-0.00112739,0.002771879,0.9202967882156372,-0.391209722,0,0,0,0,0,0,0,0,0,-0.122070313,0.183105469,-0.061035156,0,0,0,0,0,0,0,0,0,0,0.005859375,1.013671875,0,0,0,0,0,0,0,0,0
1741043608,682690733,base_link,-0.001226407,0.002130277,0.920315146,-0.391170263,0,0,0,0,0,0,0,0,0,-0.244140625,-0.061035156,-0.061035156,0,0,0,0,0,0,0,0,0,-0.000488281,0.005371094,1.012695313,0,0,0,0,0,0,0,0,0
1741043608,702809833,base_link,-0.000846791,0.002366997,0.9203395247459412,-0.391112447,0,0,0,0,0,0,0,0,0,-0.122070313,-0.48828125,-0.427246094,0,0,0,0,0,0,0,0,0,0,0.005371094,1.014160156,0,0,0,0,0,0,0,0,0
1741043608,717880621,base_link,-0.000904436,0.003020102,0.9203542470932007,-0.391072959,0,0,0,0,0,0,0,0,0,-0.244140625,-0.366210938,-0.366210938,0,0,0,0,0,0,0,0,0,0.000488281,0.006347656,1.012695313,0,0,0,0,0,0,0,0,0
1741043608,742487898,base_link,-0.001013019,0.003857686,0.9203670024871826,-0.391035259,0,0,0,0,0,0,0,0,0,-0.122070313,-0.122070313,-0.122070313,0,0,0,0,0,0,0,0,0,0.000976563,0.007324219,1.012695313,0,0,0,0,0,0,0,0,0
1741043608,763574496,base_link,-0.00102214,0.002160071,0.9203943610191345,-0.390984029,0,0,0,0,0,0,0,0,0,0,0.183105469,-0.183105469,0,0,0,0,0,0,0,0,0,0,0.005371094,1.013671875,0,0,0,0,0,0,0,0,0
1741043608,782425838,base_link,-0.00059107,0.002438264,0.9204144477844238,-0.390935987,0,0,0,0,0,0,0,0,0,-0.061035156,-0.061035156,-0.305175781,0,0,0,0,0,0,0,0,0,0.000976563,0.004882813,1.014648438,0,0,0,0,0,0,0,0,0
1741043608,798572830,base_link,-0.00087219,0.002566457,0.9204340577125549,-0.390888423,0,0,0,0,0,0,0,0,0,-0.183105469,-0.366210938,-0.305175781,0,0,0,0,0,0,0,0,0,0,0.005371094,1.014648438,0,0,0,0,0,0,0,0,0
1741043608,822753414,base_link,-0.001249223,0.003265187,0.920449436,-0.390845984,0,0,0,0,0,0,0,0,0,-0.183105469,-0.48828125,-0.366210938,0,0,0,0,0,0,0,0,0,0,0.006835938,1.014160156,0,0,0,0,0,0,0,0,0
1741043608,838044045,base_link,-0.000622133,0.004186004,0.9204632639884949,-0.390806407,0,0,0,0,0,0,0,0,0,-0.244140625,-0.061035156,-0.183105469,0,0,0,0,0,0,0,0,0,0.001953125,0.008300781,1.014648438,0,0,0,0,0,0,0,0,0
1741043608,863578435,base_link,-0.001666226,0.002929265,0.9204859137535095,-0.390761226,0,0,0,0,0,0,0,0,0,-0.183105469,0.183105469,0,0,0,0,0,0,0,0,0,0,-0.000976563,0.006835938,1.014160156,0,0,0,0,0,0,0,0,0
1741043608,878075745,base_link,-0.002283835,0.003500788,0.9205012917518616,-0.390717268,0,0,0,0,0,0,0,0,0,-0.183105469,-0.183105469,-0.305175781,0,0,0,0,0,0,0,0,0,-0.001464844,0.008300781,1.015136719,0,0,0,0,0,0,0,0,0
1741043608,904627683,base_link,-0.001394316,0.003259366,0.9205192923545837,-0.390681058,0,0,0,0,0,0,0,0,0,-0.122070313,-0.427246094,-0.427246094,0,0,0,0,0,0,0,0,0,-0.000488281,0.007324219,1.012695313,0,0,0,0,0,0,0,0,0
1741043608,917680274,base_link,-0.000958684,0.003586071,0.9205386638641357,-0.390633762,0,0,0,0,0,0,0,0,0,-0.244140625,-0.366210938,-0.427246094,0,0,0,0,0,0,0,0,0,0.000976563,0.007324219,1.012695313,0,0,0,0,0,0,0,0,0
1741043608,942914693,base_link,-0.001354615,0.003389743,0.9205561876296997,-0.390593201,0,0,0,0,0,0,0,0,0,-0.244140625,0,-0.305175781,0,0,0,0,0,0,0,0,0,0.000488281,0.006835938,1.013183594,0,0,0,0,0,0,0,0,0
1741043608,958553008,base_link,-0.000865118,0.002639406,0.9205793142318726,-0.390545785,0,0,0,0,0,0,0,0,0,-0.122070313,0.183105469,-0.183105469,0,0,0,0,0,0,0,0,0,0.000488281,0.006347656,1.014648438,0,0,0,0,0,0,0,0,0
1741043608,982396180,base_link,-0.001713754,0.003145543,0.9206041693687439,-0.390480906,0,0,0,0,0,0,0,0,0,-0.061035156,-0.122070313,-0.122070313,0,0,0,0,0,0,0,0,0,0,0.007324219,1.013671875,0,0,0,0,0,0,0,0,0
1741043609,2565200,base_link,-0.00158151,0.003163276,0.9206176400184631,-0.390449405,0,0,0,0,0,0,0,0,0,-0.244140625,-0.366210938,-0.366210938,0,0,0,0,0,0,0,0,0,-0.000488281,0.007324219,1.013183594,0,0,0,0,0,0,0,0,0
1741043609,26867481,base_link,-0.001687474,0.002842716,0.9206292033195496,-0.390424222,0,0,0,0,0,0,0,0,0,-0.244140625,-0.305175781,-0.244140625,0,0,0,0,0,0,0,0,0,-0.000976563,0.006835938,1.015136719,0,0,0,0,0,0,0,0,0
1741043609,42465027,base_link,-0.001607072,0.002350051,0.9206463694572449,-0.390387177,0,0,0,0,0,0,0,0,0,-0.305175781,0.122070313,-0.122070313,0,0,0,0,0,0,0,0,0,-0.001464844,0.005371094,1.013671875,0,0,0,0,0,0,0,0,0
1741043609,64524276,base_link,-0.00146075,0.002307292,0.9206632971763611,-0.390348107,0,0,0,0,0,0,0,0,0,-0.244140625,0.061035156,-0.244140625,0,0,0,0,0,0,0,0,0,-0.000976563,0.005371094,1.012207031,0,0,0,0,0,0,0,0,0
1741043609,77492417,base_link,-0.000918208,0.003017055,0.9206883907318115,-0.39028582,0,0,0,0,0,0,0,0,0,-0.183105469,-0.244140625,-0.244140625,0,0,0,0,0,0,0,0,0,0.000976563,0.006347656,1.012695313,0,0,0,0,0,0,0,0,0
1741043609,102466706,base_link,-0.000882652,0.003020693,0.9207154512405396,-0.390221834,0,0,0,0,0,0,0,0,0,-0.061035156,-0.549316406,-0.549316406,0,0,0,0,0,0,0,0,0,0.000488281,0.006347656,1.015136719,0,0,0,0,0,0,0,0,0
1741043609,117815289,base_link,-0.000835138,0.003530494,0.9207272529602051,-0.390189946,0,0,0,0,0,0,0,0,0,-0.183105469,-0.427246094,-0.48828125,0,0,0,0,0,0,0,0,0,0.000976563,0.007324219,1.014160156,0,0,0,0,0,0,0,0,0
1741043609,142438982,base_link,-0.001411139,0.003069771,0.9207467436790466,-0.390146315,0,0,0,0,0,0,0,0,0,-0.183105469,0.122070313,-0.061035156,0,0,0,0,0,0,0,0,0,0.000488281,0.006835938,1.012695313,0,0,0,0,0,0,0,0,0
1741043609,162435936,base_link,-0.002186787,0.002729209,0.9207693338394165,-0.390091777,0,0,0,0,0,0,0,0,0,-0.183105469,0.183105469,-0.122070313,0,0,0,0,0,0,0,0,0,-0.001464844,0.006835938,1.014648438,0,0,0,0,0,0,0,0,0
1741043609,182425530,base_link,-0.00131646,0.002747409,0.9207895398139954,-0.390047878,0,0,0,0,0,0,0,0,0,-0.122070313,-0.122070313,-0.244140625,0,0,0,0,0,0,0,0,0,-0.000488281,0.006347656,1.013183594,0,0,0,0,0,0,0,0,0
1741043609,203597633,base_link,-0.001421412,0.003318783,0.9208074808120728,-0.390000671,0,0,0,0,0,0,0,0,0,-0.183105469,-0.48828125,-0.427246094,0,0,0,0,0,0,0,0,0,0,0.0078125,1.012695313,0,0,0,0,0,0,0,0,0
1741043609,223664860,base_link,-0.000958949,0.002676381,0.9208253026008606,-0.389965087,0,0,0,0,0,0,0,0,0,-0.244140625,-0.366210938,-0.48828125,0,0,0,0,0,0,0,0,0,0.000488281,0.005371094,1.013183594,0,0,0,0,0,0,0,0,0
1741043609,242493610,base_link,-2.18E-05,0.002818046,0.9208390712738037,-0.389932901,0,0,0,0,0,0,0,0,0,-0.183105469,-0.061035156,-0.183105469,0,0,0,0,0,0,0,0,0,0.001953125,0.005371094,1.013671875,0,0,0,0,0,0,0,0,0
1741043609,262528804,base_link,-0.000699498,0.002861717,0.9208602905273438,-0.389881611,0,0,0,0,0,0,0,0,0,-0.122070313,0.122070313,0,0,0,0,0,0,0,0,0,0,0.001464844,0.005859375,1.014160156,0,0,0,0,0,0,0,0,0
1741043609,282565023,base_link,-0.001328674,0.002395534,0.9208751320838928,-0.389848024,0,0,0,0,0,0,0,0,0,-0.244140625,-0.244140625,-0.244140625,0,0,0,0,0,0,0,0,0,-0.000488281,0.005371094,1.013183594,0,0,0,0,0,0,0,0,0
1741043609,297889606,base_link,-0.000964774,0.00203278,0.9208906292915344,-0.389814675,0,0,0,0,0,0,0,0,0,-0.122070313,-0.48828125,-0.305175781,0,0,0,0,0,0,0,0,0,0,0.004882813,1.013183594,0,0,0,0,0,0,0,0,0
1741043609,322823286,base_link,-0.000961293,0.002668265,0.9209128022193909,-0.389758348,0,0,0,0,0,0,0,0,0,-0.183105469,-0.305175781,-0.366210938,0,0,0,0,0,0,0,0,0,0.000488281,0.005859375,1.014160156,0,0,0,0,0,0,0,0,0
1741043609,342650415,base_link,-0.001770487,0.003216754,0.9209287166595459,-0.389713794,0,0,0,0,0,0,0,0,0,-0.244140625,0.244140625,-0.244140625,0,0,0,0,0,0,0,0,0,-0.000488281,0.007324219,1.014648438,0,0,0,0,0,0,0,0,0
1741043609,362942540,base_link,-0.00171578,0.003001069,0.9209504127502441,-0.38966462,0,0,0,0,0,0,0,0,0,0,0.122070313,-0.061035156,0,0,0,0,0,0,0,0,0,-0.001464844,0.006347656,1.013671875,0,0,0,0,0,0,0,0,0
1741043609,382603939,base_link,-0.001787658,0.003715479,0.920966387,-0.389620364,0,0,0,0,0,0,0,0,0,0,-0.183105469,-0.305175781,0,0,0,0,0,0,0,0,0,-0.000488281,0.0078125,1.01171875,0,0,0,0,0,0,0,0,0
1741043609,402291001,base_link,-0.002008825,0.003653687,0.9209833145141602,-0.389580011,0,0,0,0,0,0,0,0,0,-0.244140625,-0.427246094,-0.610351563,0,0,0,0,0,0,0,0,0,-0.000976563,0.008300781,1.014160156,0,0,0,0,0,0,0,0,0
1741043609,422930491,base_link,-0.001708849,0.002808751,0.9210031032562256,-0.389541388,0,0,0,0,0,0,0,0,0,-0.366210938,-0.305175781,-0.305175781,0,0,0,0,0,0,0,0,0,-0.000488281,0.006347656,1.014648438,0,0,0,0,0,0,0,0,0
1741043609,442641586,base_link,-0.000778883,0.00234314,0.9210161566734314,-0.389516681,0,0,0,0,0,0,0,0,0,-0.183105469,0,-0.061035156,0,0,0,0,0,0,0,0,0,0.000488281,0.005371094,1.015136719,0,0,0,0,0,0,0,0,0
1741043609,462440490,base_link,-0.001230458,0.003633055,0.9210299849510193,-0.389472723,0,0,0,0,0,0,0,0,0,-0.122070313,0,-0.122070313,0,0,0,0,0,0,0,0,0,0.000488281,0.007324219,1.012695313,0,0,0,0,0,0,0,0,0
1741043609,482496356,base_link,-0.001420331,0.002669398,0.921057403,-0.389415354,0,0,0,0,0,0,0,0,0,-0.122070313,-0.427246094,-0.183105469,0,0,0,0,0,0,0,0,0,-0.000976563,0.005859375,1.016113281,0,0,0,0,0,0,0,0,0
1741043609,502405118,base_link,-0.001910962,0.00190012,0.921074629,-0.38937676,0,0,0,0,0,0,0,0,0,-0.183105469,-0.48828125,-0.305175781,0,0,0,0,0,0,0,0,0,-0.001953125,0.005371094,1.013671875,0,0,0,0,0,0,0,0,0
1741043609,523735398,base_link,-0.001152184,0.003439232,0.9210784435272217,-0.389360338,0,0,0,0,0,0,0,0,0,-0.122070313,-0.183105469,-0.305175781,0,0,0,0,0,0,0,0,0,0.000488281,0.007324219,1.014160156,0,0,0,0,0,0,0,0,0
1741043609,545149872,base_link,-0.00110464,0.003424148,0.9210982322692871,-0.389313817,0,0,0,0,0,0,0,0,0,-0.183105469,0.122070313,-0.305175781,0,0,0,0,0,0,0,0,0,0.000488281,0.007324219,1.011230469,0,0,0,0,0,0,0,0,0
1741043609,562489517,base_link,-0.001064119,0.002372953,0.9211254119873047,-0.389257342,0,0,0,0,0,0,0,0,0,-0.183105469,0.122070313,-0.305175781,0,0,0,0,0,0,0,0,0,0,0.005859375,1.013183594,0,0,0,0,0,0,0,0,0
1741043609,581271002,base_link,-0.000384842,0.002700068,0.9211459755897522,-0.38920787,0,0,0,0,0,0,0,0,0,-0.183105469,-0.122070313,-0.305175781,0,0,0,0,0,0,0,0,0,0.001464844,0.005859375,1.013671875,0,0,0,0,0,0,0,0,0
1741043609,602358176,base_link,-0.00038666,0.003520771,0.9211663603782654,-0.389153123,0,0,0,0,0,0,0,0,0,-0.122070313,-0.549316406,-0.366210938,0,0,0,0,0,0,0,0,0,0.001464844,0.007324219,1.014160156,0,0,0,0,0,0,0,0,0
1741043609,624233071,base_link,-0.001075182,0.003209137,0.9211845397949219,-0.3891114,0,0,0,0,0,0,0,0,0,-0.122070313,-0.244140625,-0.305175781,0,0,0,0,0,0,0,0,0,0.000976563,0.006347656,1.014160156,0,0,0,0,0,0,0,0,0
1741043609,642640632,base_link,-0.001758859,0.003473224,0.9211918115615845,-0.389089406,0,0,0,0,0,0,0,0,0,-0.122070313,0,0.183105469,0,0,0,0,0,0,0,0,0,-0.000488281,0.0078125,1.013671875,0,0,0,0,0,0,0,0,0
1741043609,658729575,base_link,-0.002385669,0.003475771,0.921212375,-0.389037281,0,0,0,0,0,0,0,0,0,-0.061035156,0.061035156,-0.183105469,0,0,0,0,0,0,0,0,0,-0.001464844,0.008300781,1.015136719,0,0,0,0,0,0,0,0,0
1741043609,683775065,base_link,-0.001684902,0.003287013,0.9212343692779541,-0.388990462,0,0,0,0,0,0,0,0,0,-0.183105469,-0.305175781,-0.427246094,0,0,0,0,0,0,0,0,0,0,0.006835938,1.012207031,0,0,0,0,0,0,0,0,0
1741043609,699391747,base_link,-0.000454875,0.003805134,0.9212539196014404,-0.388942868,0,0,0,0,0,0,0,0,0,-0.183105469,-0.549316406,-0.48828125,0,0,0,0,0,0,0,0,0,0.002929688,0.006835938,1.013671875,0,0,0,0,0,0,0,0,0
1741043609,717678187,base_link,-0.000834814,0.002407437,0.9212844967842102,-0.388881058,0,0,0,0,0,0,0,0,0,-0.122070313,-1.586914063,0.122070313,0,0,0,0,0,0,0,0,0,-0.005371094,0.00390625,1.011230469,0,0,0,0,0,0,0,0,0
1741043609,737578308,base_link,-0.000591412,0.002529775,0.9211997389793396,-0.389081419,0,0,0,0,0,0,0,0,0,0.427246094,-1.159667969,1.770019531,0,0,0,0,0,0,0,0,0,0.010253906,0.009765625,1.014160156,0,0,0,0,0,0,0,0,0
1741043609,763875811,base_link,-0.000518497,0.003839604,0.9210049510002136,-0.389531642,0,0,0,0,0,0,0,0,0,0.549316406,-3.295898438,4.760742188,0,0,0,0,0,0,0,0,0,-0.006347656,0.009765625,1.015625,0,0,0,0,0,0,0,0,0
1741043609,783310647,base_link,-0.001112682,0.004550491,0.9206157922744751,-0.390441597,0,0,0,0,0,0,0,0,0,-0.305175781,-0.610351563,5.920410156,0,0,0,0,0,0,0,0,0,0.010253906,0.017089844,1.011230469,0,0,0,0,0,0,0,0,0
1741043609,802975085,base_link,0.000137178,0.005074178,0.9206030964851379,-0.390466571,0,0,0,0,0,0,0,0,0,-0.732421875,2.746582031,-3.295898438,0,0,0,0,0,0,0,0,0,0.034179688,0.002441406,1.015136719,0,0,0,0,0,0,0,0,0
1741043609,823236106,base_link,-0.001024164,0.003968395,0.9207626581192017,-0.390101701,0,0,0,0,0,0,0,0,0,0.9765625,-2.258300781,-0.244140625,0,0,0,0,0,0,0,0,0,-0.115722656,-0.001464844,1.016113281,0,0,0,0,0,0,0,0,0
1741043609,842492124,base_link,-0.001750242,0.003557576,0.9209567308425903,-0.389644861,0,0,0,0,0,0,0,0,0,-0.549316406,0.549316406,-5.432128906,0,0,0,0,0,0,0,0,0,0.042480469,0.008789063,1.004882813,0,0,0,0,0,0,0,0,0
1741043609,857795971,base_link,-0.000493227,0.003902187,0.9214245676994324,-0.388537347,0,0,0,0,0,0,0,0,0,-0.48828125,3.540039063,-6.591796875,0,0,0,0,0,0,0,0,0,0.04296875,0.002441406,1.021484375,0,0,0,0,0,0,0,0,0
1741043609,878175650,base_link,-0.001453465,0.002757812,0.9216368198394775,-0.388041347,0,0,0,0,0,0,0,0,0,0.244140625,-2.807617188,-0.610351563,0,0,0,0,0,0,0,0,0,-0.070800781,-0.002441406,1.015625,0,0,0,0,0,0,0,0,0
1741043609,899138854,base_link,-0.00113536,0.002751971,0.9216023683547974,-0.388124019,0,0,0,0,0,0,0,0,0,-0.244140625,0.427246094,0.915527344,0,0,0,0,0,0,0,0,0,0.047851563,0.0078125,1.004394531,0,0,0,0,0,0,0,0,0
1741043609,917720785,base_link,0.000213733,0.00337966,0.9215719699859619,-0.388192952,0,0,0,0,0,0,0,0,0,-0.48828125,1.220703125,-0.122070313,0,0,0,0,0,0,0,0,0,0.047851563,0.010253906,1.020019531,0,0,0,0,0,0,0,0,0
1741043609,940634987,base_link,-0.000799062,0.003250783,0.9215474128723145,-0.388251513,0,0,0,0,0,0,0,0,0,-0.244140625,0.061035156,0.549316406,0,0,0,0,0,0,0,0,0,-0.054199219,0.01171875,1.013183594,0,0,0,0,0,0,0,0,0
1741043609,958447438,base_link,-0.002289168,0.003043327,0.9215617775917053,-0.388213068,0,0,0,0,0,0,0,0,0,0.122070313,-1.220703125,-0.732421875,0,0,0,0,0,0,0,0,0,-0.016113281,0.014648438,1.014160156,0,0,0,0,0,0,0,0,0
1741043609,979093839,base_link,-0.000989841,0.004143825,0.9216278791427612,-0.388051599,0,0,0,0,0,0,0,0,0,-0.183105469,0.671386719,-0.915527344,0,0,0,0,0,0,0,0,0,0.029296875,0.011230469,1.012207031,0,0,0,0,0,0,0,0,0
1741043610,2472910,base_link,-0.000146415,0.004396047,0.9216424226760864,-0.388015658,0,0,0,0,0,0,0,0,0,-0.244140625,-0.366210938,0.244140625,0,0,0,0,0,0,0,0,0,-0.001464844,0.007324219,1.013671875,0,0,0,0,0,0,0,0,0
1741043610,17706356,base_link,-0.00175304,0.00362217,0.9216196537017822,-0.388073593,0,0,0,0,0,0,0,0,0,-0.122070313,-0.061035156,-0.061035156,0,0,0,0,0,0,0,0,0,-0.004882813,0.008300781,1.013671875,0,0,0,0,0,0,0,0,0
1741043610,43338412,base_link,-0.002722494,0.002616188,0.921648383,-0.38800776,0,0,0,0,0,0,0,0,0,-0.366210938,-0.122070313,-0.48828125,0,0,0,0,0,0,0,0,0,-0.003417969,0.007324219,1.013183594,0,0,0,0,0,0,0,0,0
1741043610,62561373,base_link,-0.003186187,0.001828835,0.9216802716255188,-0.387933046,0,0,0,0,0,0,0,0,0,-0.183105469,0,-0.061035156,0,0,0,0,0,0,0,0,0,-0.00390625,0.005859375,1.015625,0,0,0,0,0,0,0,0,0
1741043610,82390198,base_link,-0.001466008,0.002405808,0.9217016100883484,-0.387889415,0,0,0,0,0,0,0,0,0,-0.122070313,0.122070313,-0.305175781,0,0,0,0,0,0,0,0,0,0.008300781,0.005859375,1.013671875,0,0,0,0,0,0,0,0,0
1741043610,102584402,base_link,-0.000826521,0.003079527,0.9217172265052795,-0.387849331,0,0,0,0,0,0,0,0,0,-0.183105469,-0.427246094,-0.305175781,0,0,0,0,0,0,0,0,0,-0.000488281,0.006835938,1.012695313,0,0,0,0,0,0,0,0,0
1741043610,122450219,base_link,-0.002414881,0.002400416,0.9217353463172913,-0.387804657,0,0,0,0,0,0,0,0,0,-0.183105469,-0.549316406,-0.366210938,0,0,0,0,0,0,0,0,0,-0.0078125,0.006347656,1.012695313,0,0,0,0,0,0,0,0,0
1741043610,141377817,base_link,-0.001984094,0.003123915,0.921747625,-0.387772799,0,0,0,0,0,0,0,0,0,-0.061035156,-0.061035156,-0.305175781,0,0,0,0,0,0,0,0,0,0.002929688,0.0078125,1.015625,0,0,0,0,0,0,0,0,0
1741043610,163576620,base_link,-0.000416858,0.003945773,0.9217607378959656,-0.387738913,0,0,0,0,0,0,0,0,0,-0.122070313,0.305175781,0.183105469,0,0,0,0,0,0,0,0,0,0.004882813,0.008300781,1.015625,0,0,0,0,0,0,0,0,0
1741043610,183989034,base_link,-0.001115884,0.003590137,0.9217782616615295,-0.387699366,0,0,0,0,0,0,0,0,0,-0.244140625,-0.122070313,-0.244140625,0,0,0,0,0,0,0,0,0,0,0.0078125,1.012207031,0,0,0,0,0,0,0,0,0
1741043610,202670870,base_link,-0.001806446,0.003674218,0.9217977523803711,-0.387649745,0,0,0,0,0,0,0,0,0,-0.244140625,-0.48828125,-0.427246094,0,0,0,0,0,0,0,0,0,-0.000488281,0.008300781,1.01171875,0,0,0,0,0,0,0,0,0
1741043610,223154710,base_link,-0.000350845,0.004023902,0.9218164086341858,-0.387605876,0,0,0,0,0,0,0,0,0,-0.122070313,-0.48828125,-0.244140625,0,0,0,0,0,0,0,0,0,0.002441406,0.0078125,1.015136719,0,0,0,0,0,0,0,0,0
1741043610,237931159,base_link,-0.000163435,0.003864811,0.921832263,-0.387569755,0,0,0,0,0,0,0,0,0,-0.305175781,0,-0.305175781,0,0,0,0,0,0,0,0,0,0.002929688,0.007324219,1.013183594,0,0,0,0,0,0,0,0,0
1741043610,262424482,base_link,-0.001061269,0.003206889,0.9218487739562988,-0.387535244,0,0,0,0,0,0,0,0,0,-0.122070313,0.366210938,-0.122070313,0,0,0,0,0,0,0,0,0,0.000488281,0.006835938,1.013183594,0,0,0,0,0,0,0,0,0
1741043610,278586066,base_link,-0.002565722,0.002690082,0.9218682646751404,-0.387485683,0,0,0,0,0,0,0,0,0,-0.122070313,-0.183105469,-0.122070313,0,0,0,0,0,0,0,0,0,-0.002441406,0.006835938,1.014160156,0,0,0,0,0,0,0,0,0
1741043610,302664121,base_link,-0.001069666,0.003659485,0.9218809008598328,-0.387454599,0,0,0,0,0,0,0,0,0,-0.122070313,-0.366210938,-0.366210938,0,0,0,0,0,0,0,0,0,0.001953125,0.0078125,1.012207031,0,0,0,0,0,0,0,0,0
1741043610,322834069,base_link,-0.001263734,0.004578546,0.921890914,-0.387420505,0,0,0,0,0,0,0,0,0,-0.244140625,-0.366210938,-0.366210938,0,0,0,0,0,0,0,0,0,0.001464844,0.009277344,1.012207031,0,0,0,0,0,0,0,0,0
1741043610,343281300,base_link,-0.002474259,0.003405555,0.9219126105308533,-0.387375146,0,0,0,0,0,0,0,0,0,0,-0.061035156,-0.183105469,0,0,0,0,0,0,0,0,0,-0.001953125,0.008300781,1.012695313,0,0,0,0,0,0,0,0,0
1741043610,363562481,base_link,-0.000887553,0.003560082,0.9219342470169067,-0.387328982,0,0,0,0,0,0,0,0,0,-0.122070313,0.305175781,-0.122070313,0,0,0,0,0,0,0,0,0,0.000976563,0.007324219,1.01171875,0,0,0,0,0,0,0,0,0
1741043610,382678594,base_link,-0.000999765,0.003002424,0.9219508767127991,-0.387294054,0,0,0,0,0,0,0,0,0,-0.061035156,-0.122070313,0,0,0,0,0,0,0,0,0,0,0.000488281,0.006347656,1.013183594,0,0,0,0,0,0,0,0,0
1741043610,402435418,base_link,-0.001838841,0.002580928,0.9219726920127869,-0.387241989,0,0,0,0,0,0,0,0,0,-0.305175781,-0.48828125,-0.427246094,0,0,0,0,0,0,0,0,0,-0.001953125,0.006835938,1.013183594,0,0,0,0,0,0,0,0,0
1741043610,422428788,base_link,-0.001994892,0.004050369,0.9219772815704346,-0.387217611,0,0,0,0,0,0,0,0,0,-0.366210938,-0.366210938,-0.427246094,0,0,0,0,0,0,0,0,0,-0.000976563,0.008789063,1.012695313,0,0,0,0,0,0,0,0,0
1741043610,442643248,base_link,-0.000526138,0.003414804,0.9219929575920105,-0.387191445,0,0,0,0,0,0,0,0,0,-0.122070313,0.122070313,-0.122070313,0,0,0,0,0,0,0,0,0,0.001464844,0.006835938,1.012207031,0,0,0,0,0,0,0,0,0
1741043610,463525652,base_link,-0.000261234,0.002609597,0.9220157861709595,-0.387143433,0,0,0,0,0,0,0,0,0,-0.061035156,0.061035156,-0.244140625,0,0,0,0,0,0,0,0,0,0.001464844,0.005371094,1.015136719,0,0,0,0,0,0,0,0,0
1741043610,482677925,base_link,-0.001668659,0.003186315,0.9220321774482727,-0.387096643,0,0,0,0,0,0,0,0,0,0,-0.061035156,-0.244140625,0,0,0,0,0,0,0,0,0,-0.000976563,0.007324219,1.014648438,0,0,0,0,0,0,0,0,0
1741043610,502421820,base_link,-0.002047103,0.002444284,0.9220490455627441,-0.387060076,0,0,0,0,0,0,0,0,0,-0.122070313,-0.305175781,-0.122070313,0,0,0,0,0,0,0,0,0,-0.001953125,0.006835938,1.01171875,0,0,0,0,0,0,0,0,0
1741043610,522476791,base_link,-0.001484389,0.003828808,0.9220573902130127,-0.387031436,0,0,0,0,0,0,0,0,0,-0.244140625,-0.244140625,-0.427246094,0,0,0,0,0,0,0,0,0,0,0.008300781,1.012695313,0,0,0,0,0,0,0,0,0
1741043610,542582771,base_link,-0.000956544,0.00394196,0.922068179,-0.387006164,0,0,0,0,0,0,0,0,0,-0.183105469,0.061035156,-0.183105469,0,0,0,0,0,0,0,0,0,0.000976563,0.0078125,1.013183594,0,0,0,0,0,0,0,0,0
1741043610,564933606,base_link,-0.001374537,0.003900198,0.9220955967903137,-0.386940062,0,0,0,0,0,0,0,0,0,-0.061035156,0,-0.244140625,0,0,0,0,0,0,0,0,0,0.000488281,0.008300781,1.015136719,0,0,0,0,0,0,0,0,0
1741043610,582960267,base_link,-0.002309539,0.002703547,0.9221308827400208,-0.386861652,0,0,0,0,0,0,0,0,0,-0.183105469,-1.281738281,-0.244140625,0,0,0,0,0,0,0,0,0,-0.004394531,0.006835938,1.013183594,0,0,0,0,0,0,0,0,0
1741043610,602492832,base_link,-0.001607583,0.002136352,0.9220641255378723,-0.38702786,0,0,0,0,0,0,0,0,0,0.061035156,-2.014160156,1.953125,0,0,0,0,0,0,0,0,0,0.005371094,0.006347656,1.012695313,0,0,0,0,0,0,0,0,0
1741043610,624237421,base_link,-0.000572231,0.003685706,0.9218972325325012,-0.387416691,0,0,0,0,0,0,0,0,0,0,-3.234863281,3.479003906,0,0,0,0,0,0,0,0,0,0.003417969,0.012695313,1.017089844,0,0,0,0,0,0,0,0,0
1741043610,643786211,base_link,-0.001621816,0.003782328,0.9215482473373413,-0.388242215,0,0,0,0,0,0,0,0,0,-0.183105469,-2.136230469,6.103515625,0,0,0,0,0,0,0,0,0,-0.001464844,0.01171875,1.014648438,0,0,0,0,0,0,0,0,0
1741043610,660008788,base_link,5.396457709139213e-05,0.004862234,0.9212138652801514,-0.389026165,0,0,0,0,0,0,0,0,0,-0.122070313,-1.342773438,4.455566406,0,0,0,0,0,0,0,0,0,0.029296875,0.010742188,1.014160156,0,0,0,0,0,0,0,0,0
1741043610,683314162,base_link,0.000283404,0.004781335,0.9209449291229248,-0.389663517,0,0,0,0,0,0,0,0,0,0,-1.037597656,4.211425781,0,0,0,0,0,0,0,0,0,-0.008789063,0.007324219,1.016113281,0,0,0,0,0,0,0,0,0
1741043610,702607844,base_link,-0.001103002,0.004276,0.9206922054290771,-0.390264541,0,0,0,0,0,0,0,0,0,-0.305175781,-1.708984375,2.868652344,0,0,0,0,0,0,0,0,0,-0.014648438,0.010742188,1.015136719,0,0,0,0,0,0,0,0,0
1741043610,722843905,base_link,-0.000202226,0.004614376,0.9206026196479797,-0.390473396,0,0,0,0,0,0,0,0,0,-0.671386719,0.427246094,0.183105469,0,0,0,0,0,0,0,0,0,0.014160156,0.006835938,1.015136719,0,0,0,0,0,0,0,0,0
1741043610,742612441,base_link,0.000169613,0.003548301,0.9206960797309875,-0.390264243,0,0,0,0,0,0,0,0,0,0.305175781,-0.122070313,-1.525878906,0,0,0,0,0,0,0,0,0,-0.010742188,0,1.017578125,0,0,0,0,0,0,0,0,0
1741043610,762427345,base_link,-0.001210967,0.002866826,0.920745313,-0.390152007,0,0,0,0,0,0,0,0,0,0.48828125,-0.9765625,-0.183105469,0,0,0,0,0,0,0,0,0,-0.015136719,0.007324219,1.009765625,0,0,0,0,0,0,0,0,0
1741043610,783419446,base_link,-0.000344032,0.003933812,0.9207493662834167,-0.390134603,0,0,0,0,0,0,0,0,0,-0.610351563,-0.122070313,-0.305175781,0,0,0,0,0,0,0,0,0,0.034179688,0.01171875,1.016113281,0,0,0,0,0,0,0,0,0
1741043610,802616296,base_link,0.001171239,0.004220881,0.9207574725151062,-0.390111059,0,0,0,0,0,0,0,0,0,-0.305175781,0.061035156,-0.244140625,0,0,0,0,0,0,0,0,0,0.009277344,0.003417969,1.016601563,0,0,0,0,0,0,0,0,0
1741043610,817815469,base_link,-5.39E-05,0.003018524,0.9207646250724792,-0.390106976,0,0,0,0,0,0,0,0,0,-0.122070313,-0.793457031,-0.122070313,0,0,0,0,0,0,0,0,0,-0.020507813,0.000488281,1.006835938,0,0,0,0,0,0,0,0,0
1741043610,842696221,base_link,-0.000537469,0.002358203,0.9207919239997864,-0.390046626,0,0,0,0,0,0,0,0,0,0.122070313,0.183105469,-0.183105469,0,0,0,0,0,0,0,0,0,0.008300781,0.005859375,1.014648438,0,0,0,0,0,0,0,0,0
1741043610,862633206,base_link,0.00090797,0.0034048,0.9208113551139832,-0.389992446,0,0,0,0,0,0,0,0,0,0,0.244140625,-0.122070313,0,0,0,0,0,0,0,0,0,0.015625,0.009765625,1.019042969,0,0,0,0,0,0,0,0,0
1741043610,883222263,base_link,0.000287608,0.004409705,0.9208055734634399,-0.389997095,0,0,0,0,0,0,0,0,0,-0.305175781,-0.305175781,0.244140625,0,0,0,0,0,0,0,0,0,-0.001464844,0.010253906,1.012695313,0,0,0,0,0,0,0,0,0
1741043610,902423593,base_link,-0.001288182,0.003788284,0.9208194017410278,-0.389968812,0,0,0,0,0,0,0,0,0,-0.305175781,-0.427246094,-0.305175781,0,0,0,0,0,0,0,0,0,-0.002929688,0.007324219,1.014648438,0,0,0,0,0,0,0,0,0
1741043610,918923069,base_link,-0.001214057,0.003887785,0.9208428859710693,-0.389912665,0,0,0,0,0,0,0,0,0,-0.366210938,-0.244140625,-0.549316406,0,0,0,0,0,0,0,0,0,0.00390625,0.008789063,1.014160156,0,0,0,0,0,0,0,0,0
1741043610,943853933,base_link,0.000272408,0.004852965,0.9208464622497559,-0.389895111,0,0,0,0,0,0,0,0,0,-0.183105469,0.244140625,-0.061035156,0,0,0,0,0,0,0,0,0,0.0078125,0.009765625,1.016601563,0,0,0,0,0,0,0,0,0
1741043610,963083550,base_link,0.000534406,0.004496717,0.9208712577819824,-0.389840722,0,0,0,0,0,0,0,0,0,-0.061035156,-0.122070313,-0.305175781,0,0,0,0,0,0,0,0,0,0.003417969,0.007324219,1.015625,0,0,0,0,0,0,0,0,0
1741043610,982981079,base_link,-0.000531271,0.003137413,0.9209004640579224,-0.389784813,0,0,0,0,0,0,0,0,0,-0.122070313,-0.366210938,-0.366210938,0,0,0,0,0,0,0,0,0,-0.001953125,0.005371094,1.012695313,0,0,0,0,0,0,0,0,0
1741043611,2406091,base_link,-0.000796606,0.003523415,0.9209158420562744,-0.389744729,0,0,0,0,0,0,0,0,0,-0.183105469,-0.48828125,-0.122070313,0,0,0,0,0,0,0,0,0,0.001953125,0.007324219,1.016601563,0,0,0,0,0,0,0,0,0
1741043611,22574823,base_link,0.000831471,0.00411887,0.9209269881248474,-0.389712662,0,0,0,0,0,0,0,0,0,-0.305175781,0.122070313,-0.305175781,0,0,0,0,0,0,0,0,0,0.007324219,0.006835938,1.015136719,0,0,0,0,0,0,0,0,0
1741043611,42632962,base_link,0.000270207,0.003525309,0.920938253,-0.389692634,0,0,0,0,0,0,0,0,0,-0.122070313,0.122070313,-0.122070313,0,0,0,0,0,0,0,0,0,0.002441406,0.006835938,1.013671875,0,0,0,0,0,0,0,0,0
1741043611,65466331,base_link,-0.001071366,0.003814206,0.9209582209587097,-0.389641285,0,0,0,0,0,0,0,0,0,-0.183105469,-0.061035156,-0.183105469,0,0,0,0,0,0,0,0,0,0.000976563,0.0078125,1.013183594,0,0,0,0,0,0,0,0,0
1741043611,82872569,base_link,0.000356553,0.004830579,0.9209781885147095,-0.389584243,0,0,0,0,0,0,0,0,0,-0.244140625,-0.366210938,-0.549316406,0,0,0,0,0,0,0,0,0,0.004394531,0.008789063,1.016601563,0,0,0,0,0,0,0,0,0
1741043611,102666577,base_link,0.000386418,0.004705485,0.9209879040718079,-0.389562607,0,0,0,0,0,0,0,0,0,-0.244140625,-0.305175781,-0.183105469,0,0,0,0,0,0,0,0,0,0.004882813,0.008789063,1.013183594,0,0,0,0,0,0,0,0,0
1741043611,118721280,base_link,-0.000445181,0.003203666,0.9210073351860046,-0.38953197,0,0,0,0,0,0,0,0,0,-0.183105469,0,-0.122070313,0,0,0,0,0,0,0,0,0,0.001953125,0.006835938,1.013183594,0,0,0,0,0,0,0,0,0
1741043611,142599397,base_link,-0.000451469,0.003820842,0.9210218191146851,-0.389492005,0,0,0,0,0,0,0,0,0,-0.183105469,0,-0.244140625,0,0,0,0,0,0,0,0,0,0.002929688,0.0078125,1.015136719,0,0,0,0,0,0,0,0,0
1741043611,157702762,base_link,0.000463979,0.005226863,0.9210290312767029,-0.389458656,0,0,0,0,0,0,0,0,0,-0.183105469,0.122070313,-0.061035156,0,0,0,0,0,0,0,0,0,0.004882813,0.009277344,1.014160156,0,0,0,0,0,0,0,0,0
1741043611,182719546,base_link,0.00081569,0.004518432,0.9210466146469116,-0.389425576,0,0,0,0,0,0,0,0,0,-0.122070313,-0.305175781,-0.061035156,0,0,0,0,0,0,0,0,0,0.004394531,0.0078125,1.013671875,0,0,0,0,0,0,0,0,0
1741043611,202622260,base_link,0.000342442,0.00326809,0.9210728406906128,-0.389376521,0,0,0,0,0,0,0,0,0,-0.305175781,-0.305175781,-0.427246094,0,0,0,0,0,0,0,0,0,0.002929688,0.006347656,1.013183594,0,0,0,0,0,0,0,0,0
1741043611,222632622,base_link,0.000557535,0.004892034,0.921083391,-0.389334232,0,0,0,0,0,0,0,0,0,-0.244140625,-0.122070313,-0.244140625,0,0,0,0,0,0,0,0,0,0.004882813,0.008789063,1.01171875,0,0,0,0,0,0,0,0,0
1741043611,242402502,base_link,0.000163596,0.00405177,0.921103299,-0.389297128,0,0,0,0,0,0,0,0,0,-0.122070313,0.061035156,-0.183105469,0,0,0,0,0,0,0,0,0,0.003417969,0.0078125,1.015625,0,0,0,0,0,0,0,0,0
1741043611,263553580,base_link,0.000590435,0.004045819,0.9211161732673645,-0.389266461,0,0,0,0,0,0,0,0,0,-0.061035156,0,-0.122070313,0,0,0,0,0,0,0,0,0,0.004394531,0.007324219,1.014160156,0,0,0,0,0,0,0,0,0
1741043611,282697629,base_link,-0.000577534,0.003929302,0.9211393594741821,-0.389212757,0,0,0,0,0,0,0,0,0,-0.244140625,-0.427246094,-0.244140625,0,0,0,0,0,0,0,0,0,0.001464844,0.0078125,1.014160156,0,0,0,0,0,0,0,0,0
1741043611,302693559,base_link,9.287256398238242e-05,0.004484798,0.9211527705192566,-0.389175594,0,0,0,0,0,0,0,0,0,-0.244140625,-0.366210938,-0.366210938,0,0,0,0,0,0,0,0,0,0.00390625,0.008300781,1.015625,0,0,0,0,0,0,0,0,0
1741043611,322825939,base_link,-7.82E-05,0.004716694,0.9211697578430176,-0.38913247,0,0,0,0,0,0,0,0,0,-0.244140625,-0.183105469,-0.244140625,0,0,0,0,0,0,0,0,0,0.003417969,0.008789063,1.015625,0,0,0,0,0,0,0,0,0
1741043611,342557386,base_link,-0.000289996,0.005139204,0.9211858510971069,-0.389088929,0,0,0,0,0,0,0,0,0,0,0.183105469,0,0,0,0,0,0,0,0,0,0,0.003417969,0.009765625,1.014160156,0,0,0,0,0,0,0,0,0
1741043611,364890270,base_link,-9.15E-05,0.004284071,0.9212111234664917,-0.389039576,0,0,0,0,0,0,0,0,0,-0.183105469,0.061035156,-0.244140625,0,0,0,0,0,0,0,0,0,0.003417969,0.008300781,1.015625,0,0,0,0,0,0,0,0,0
1741043611,384194864,base_link,-0.000842049,0.004324215,0.9212265610694885,-0.389001638,0,0,0,0,0,0,0,0,0,-0.183105469,-0.244140625,-0.183105469,0,0,0,0,0,0,0,0,0,0.001464844,0.008300781,1.015136719,0,0,0,0,0,0,0,0,0
1741043611,404351884,base_link,-0.0008849,0.004466044,0.9212468266487122,-0.388951868,0,0,0,0,0,0,0,0,0,-0.244140625,-0.366210938,-0.427246094,0,0,0,0,0,0,0,0,0,0.002441406,0.008789063,1.013183594,0,0,0,0,0,0,0,0,0
1741043611,423078329,base_link,0.000370959,0.002904234,0.921276867,-0.388896257,0,0,0,0,0,0,0,0,0,-5.37109375,-0.610351563,-0.366210938,0,0,0,0,0,0,0,0,0,-0.003417969,-0.044433594,0.969726563,0,0,0,0,0,0,0,0,0
1741043611,445075785,base_link,0.001763783,-5.34E-06,0.921181858,-0.389128536,0,0,0,0,0,0,0,0,0,-3.540039063,-8.117675781,-1.159667969,0,0,0,0,0,0,0,0,0,0.013671875,-0.263671875,1.031738281,0,0,0,0,0,0,0,0,0
1741043611,458034518,base_link,0.002508392,-0.001491689,0.9207804203033447,-0.390070617,0,0,0,0,0,0,0,0,0,4.821777344,-8.239746094,2.990722656,0,0,0,0,0,0,0,0,0,0.033691406,-0.231445313,1.107421875,0,0,0,0,0,0,0,0,0
1741043611,482714115,base_link,0.003297392,-0.002727871,0.9203153848648071,-0.391153932,0,0,0,0,0,0,0,0,0,-3.662109375,3.662109375,8.728027344,0,0,0,0,0,0,0,0,0,0.025390625,-0.1484375,0.964355469,0,0,0,0,0,0,0,0,0
1741043611,502779358,base_link,0.004223863,-0.003892796,0.9198117256164551,-0.39231804,0,0,0,0,0,0,0,0,0,0.122070313,-2.624511719,10.7421875,0,0,0,0,0,0,0,0,0,-0.004882813,-0.094726563,0.986816406,0,0,0,0,0,0,0,0,0
1741043611,518026788,base_link,0.004517744,-0.006043661,0.9189866185188293,-0.394216388,0,0,0,0,0,0,0,0,0,3.173828125,-1.586914063,10.19287109,0,0,0,0,0,0,0,0,0,0.04296875,-0.208007813,1.083984375,0,0,0,0,0,0,0,0,0
1741043611,545451280,base_link,0.005079107,-0.00714881,0.9180614352226257,-0.396341354,0,0,0,0,0,0,0,0,0,-0.305175781,2.624511719,14.09912109,0,0,0,0,0,0,0,0,0,0.009277344,-0.101074219,0.983398438,0,0,0,0,0,0,0,0,0
1741043611,563737879,base_link,0.006145202,-0.009018534,0.9171679615974426,-0.39835158,0,0,0,0,0,0,0,0,0,-9.643554688,5.554199219,16.23535156,0,0,0,0,0,0,0,0,0,0.022949219,-0.181152344,0.933105469,0,0,0,0,0,0,0,0,0
1741043611,582633349,base_link,0.007467657,-0.011549988,0.9160473346710205,-0.400834203,0,0,0,0,0,0,0,0,0,-5.249023438,3.662109375,18.92089844,0,0,0,0,0,0,0,0,0,0.049804688,-0.29296875,1.012695313,0,0,0,0,0,0,0,0,0
1741043611,602410845,base_link,0.008203182,-0.01328579,0.91468215,-0.403872222,0,0,0,0,0,0,0,0,0,-0.183105469,1.647949219,21.484375,0,0,0,0,0,0,0,0,0,0.042480469,-0.304199219,1.052734375,0,0,0,0,0,0,0,0,0
1741043611,622547417,base_link,0.008701925,-0.014137102,0.9131320118904114,-0.407326043,0,0,0,0,0,0,0,0,0,3.112792969,-1.892089844,21.54541016,0,0,0,0,0,0,0,0,0,0.02734375,-0.23828125,1.041015625,0,0,0,0,0,0,0,0,0
1741043611,642571763,base_link,0.010035526938736439,-0.015008966,0.9114010334014893,-0.411123246,0,0,0,0,0,0,0,0,0,0.366210938,-4.211425781,24.59716797,0,0,0,0,0,0,0,0,0,0.041992188,-0.227050781,0.975097656,0,0,0,0,0,0,0,0,0
1741043611,662583085,base_link,0.010997275821864605,-0.016285302,0.909466028,-0.415313601,0,0,0,0,0,0,0,0,0,0.183105469,-0.671386719,26.30615234,0,0,0,0,0,0,0,0,0,0.0546875,-0.185058594,0.979003906,0,0,0,0,0,0,0,0,0
1741043611,683391312,base_link,0.012408770620822906,-0.017449224,0.9073773622512817,-0.419771194,0,0,0,0,0,0,0,0,0,0.793457031,-0.427246094,28.86962891,0,0,0,0,0,0,0,0,0,0.048828125,-0.159667969,1.006347656,0,0,0,0,0,0,0,0,0
1741043611,702963910,base_link,0.013484393246471882,-0.018591423,0.9050919413566589,-0.424595416,0,0,0,0,0,0,0,0,0,1.708984375,-1.342773438,30.57861328,0,0,0,0,0,0,0,0,0,0.034667969,-0.134765625,1.033691406,0,0,0,0,0,0,0,0,0
1741043611,722484923,base_link,0.014751603826880455,-0.019918554,0.902589738,-0.429787755,0,0,0,0,0,0,0,0,0,-1.342773438,-4.150390625,31.61621094,0,0,0,0,0,0,0,0,0,0.028808594,-0.09765625,0.990722656,0,0,0,0,0,0,0,0,0
1741043611,742974746,base_link,0.015854155644774437,-0.019796653,0.8999806642532349,-0.435191423,0,0,0,0,0,0,0,0,0,3.845214844,2.9296875,34.66796875,0,0,0,0,0,0,0,0,0,0.018554688,-0.029785156,1.013671875,0,0,0,0,0,0,0,0,0
1741043611,762487439,base_link,0.014194460585713387,-0.018329304,0.8969638347625732,-0.441495717,0,0,0,0,0,0,0,0,0,1.647949219,-5.249023438,39.91699219,0,0,0,0,0,0,0,0,0,-0.066894531,0.100097656,0.974121094,0,0,0,0,0,0,0,0,0
1741043611,782494506,base_link,0.014206342,-0.016340278,0.8940185904502869,-0.447506428,0,0,0,0,0,0,0,0,0,-0.122070313,-4.516601563,37.96386719,0,0,0,0,0,0,0,0,0,0.050292969,0.093261719,1.005859375,0,0,0,0,0,0,0,0,0
1741043611,805921929,base_link,0.014421413652598858,-0.014697952,0.8913507461547852,-0.452846348,0,0,0,0,0,0,0,0,0,-2.014160156,1.342773438,33.50830078,0,0,0,0,0,0,0,0,0,0.103027344,0.072753906,1.062988281,0,0,0,0,0,0,0,0,0
1741043611,822565695,base_link,0.014847054,-0.012841941,0.8887447714805603,-0.457982063,0,0,0,0,0,0,0,0,0,2.807617188,-5.187988281,34.54589844,0,0,0,0,0,0,0,0,0,0.041015625,0.053222656,1.060058594,0,0,0,0,0,0,0,0,0
1741043611,842581273,base_link,0.015995454043149948,-0.012919614,0.8859714269638062,-0.463283896,0,0,0,0,0,0,0,0,0,-3.662109375,6.164550781,33.38623047,0,0,0,0,0,0,0,0,0,0.09375,-0.098632813,0.909179688,0,0,0,0,0,0,0,0,0
1741043611,862798966,base_link,0.015859687700867653,-0.011219637,0.8833088278770447,-0.468388915,0,0,0,0,0,0,0,0,0,6.713867188,7.446289063,38.26904297,0,0,0,0,0,0,0,0,0,0.012207031,0.083496094,1.059082031,0,0,0,0,0,0,0,0,0
1741043611,882766511,base_link,0.014580008573830128,-0.008033001,0.8804729580879211,-0.473804295,0,0,0,0,0,0,0,0,0,11.10839844,-14.34326172,32.53173828,0,0,0,0,0,0,0,0,0,-0.024902344,0.21875,1.052246094,0,0,0,0,0,0,0,0,0
1741043611,903011852,base_link,0.014356384985148907,-0.007304317,0.877750039,-0.4788481,0,0,0,0,0,0,0,0,0,-12.26806641,4.028320313,30.76171875,0,0,0,0,0,0,0,0,0,0.026855469,0.139648438,0.864257813,0,0,0,0,0,0,0,0,0
1741043611,922526977,base_link,0.014284155331552029,-0.006331893,0.8751533627510071,-0.483593404,0,0,0,0,0,0,0,0,0,-1.647949219,-3.967285156,30.88378906,0,0,0,0,0,0,0,0,0,0.005859375,0.061523438,1.146484375,0,0,0,0,0,0,0,0,0
1741043611,943025985,base_link,0.013864888,-0.004256984,0.8726698160171509,-0.488095492,0,0,0,0,0,0,0,0,0,5.187988281,-1.281738281,28.3203125,0,0,0,0,0,0,0,0,0,0.055664063,0.073242188,1.129394531,0,0,0,0,0,0,0,0,0
1741043611,964382474,base_link,0.013459122739732265,-0.002303096,0.870339572,-0.49226281,0,0,0,0,0,0,0,0,0,1.342773438,-1.892089844,26.67236328,0,0,0,0,0,0,0,0,0,0.044433594,0.136230469,0.956054688,0,0,0,0,0,0,0,0,0
1741043611,982901780,base_link,0.013058424,-0.000986802,0.8680198192596436,-0.496356845,0,0,0,0,0,0,0,0,0,-3.540039063,-0.9765625,27.28271484,0,0,0,0,0,0,0,0,0,0.008789063,0.112792969,0.893554688,0,0,0,0,0,0,0,0,0
1741043612,7808260,base_link,0.012264532968401909,4.255646126694046e-05,0.8657131195068359,-0.500390232,0,0,0,0,0,0,0,0,0,-0.732421875,0.122070313,26.85546875,0,0,0,0,0,0,0,0,0,0.01171875,0.069335938,1.012207031,0,0,0,0,0,0,0,0,0
1741043612,22509284,base_link,0.011113181,0.002046767,0.8634699583053589,-0.504273772,0,0,0,0,0,0,0,0,0,4.028320313,-1.037597656,25.20751953,0,0,0,0,0,0,0,0,0,0.020507813,0.079589844,1.088867188,0,0,0,0,0,0,0,0,0
1741043612,42456637,base_link,0.010261155664920807,0.003972644,0.8614038825035095,-0.507801414,0,0,0,0,0,0,0,0,0,1.159667969,-1.953125,22.64404297,0,0,0,0,0,0,0,0,0,0.024902344,0.098632813,1.021972656,0,0,0,0,0,0,0,0,0
1741043612,57716228,base_link,0.009669927,0.005560552,0.8593947887420654,-0.51119101,0,0,0,0,0,0,0,0,0,-1.281738281,-2.502441406,22.64404297,0,0,0,0,0,0,0,0,0,0.005859375,0.104492188,0.989746094,0,0,0,0,0,0,0,0,0
1741043612,82480850,base_link,0.008947012,0.006827431,0.8574603199958801,-0.514427006,0,0,0,0,0,0,0,0,0,-0.305175781,-0.549316406,21.24023438,0,0,0,0,0,0,0,0,0,0.033203125,0.076660156,0.996582031,0,0,0,0,0,0,0,0,0
1741043612,102402379,base_link,0.008092283,0.008008778,0.8558166027069092,-0.517154217,0,0,0,0,0,0,0,0,0,-1.098632813,-0.061035156,16.54052734,0,0,0,0,0,0,0,0,0,0.006835938,0.067382813,0.982421875,0,0,0,0,0,0,0,0,0
1741043612,122292004,base_link,0.006236761,0.008802871,0.8546743988990784,-0.519052446,0,0,0,0,0,0,0,0,0,0.427246094,5.676269531,10.13183594,0,0,0,0,0,0,0,0,0,-0.004882813,0.081054688,1.051269531,0,0,0,0,0,0,0,0,0
1741043612,143196296,base_link,0.004093722,0.009378038,0.8541475534439087,-0.519930124,0,0,0,0,0,0,0,0,0,0.732421875,3.723144531,3.784179688,0,0,0,0,0,0,0,0,0,-0.030273438,0.112792969,1.098144531,0,0,0,0,0,0,0,0,0
1741043612,162417338,base_link,0.002130329,0.010148859582841396,0.853997529,-0.520173728,0,0,0,0,0,0,0,0,0,2.319335938,2.990722656,0.122070313,0,0,0,0,0,0,0,0,0,-0.027832031,0.109375,1.046386719,0,0,0,0,0,0,0,0,0
1741043612,183038459,base_link,0.000615713,0.011359910480678082,0.8541303873062134,-0.519934475,0,0,0,0,0,0,0,0,0,1.525878906,0.122070313,-1.586914063,0,0,0,0,0,0,0,0,0,-0.009277344,0.112304688,0.977539063,0,0,0,0,0,0,0,0,0
1741043612,202435567,base_link,-0.000736681,0.012522916309535503,0.8541812300682068,-0.519824266,0,0,0,0,0,0,0,0,0,-0.427246094,1.831054688,-0.244140625,0,0,0,0,0,0,0,0,0,0.000976563,0.099609375,0.956542969,0,0,0,0,0,0,0,0,0
1741043612,223649494,base_link,-0.002046234,0.013848088681697845,0.8541441559791565,-0.51984787,0,0,0,0,0,0,0,0,0,-0.122070313,-0.610351563,0.549316406,0,0,0,0,0,0,0,0,0,-0.00390625,0.091796875,1.011230469,0,0,0,0,0,0,0,0,0
1741043612,242479395,base_link,-0.00341406,0.014949502423405647,0.8539912104606628,-0.520061553,0,0,0,0,0,0,0,0,0,-0.061035156,0.610351563,1.770019531,0,0,0,0,0,0,0,0,0,-0.013671875,0.086914063,1.030273438,0,0,0,0,0,0,0,0,0
1741043612,263046916,base_link,-0.004612931,0.016317751,0.8539124131202698,-0.520140529,0,0,0,0,0,0,0,0,0,1.281738281,-0.854492188,0.244140625,0,0,0,0,0,0,0,0,0,0.004882813,0.088378906,1.024414063,0,0,0,0,0,0,0,0,0
1741043612,282301174,base_link,-0.00553609,0.017777374014258385,0.8538894653320312,-0.520121336,0,0,0,0,0,0,0,0,0,-0.732421875,2.014160156,-0.427246094,0,0,0,0,0,0,0,0,0,0.012207031,0.084960938,0.99609375,0,0,0,0,0,0,0,0,0
1741043612,302401457,base_link,-0.006794069,0.019105241,0.853891134,-0.520056486,0,0,0,0,0,0,0,0,0,0.915527344,-0.48828125,-0.244140625,0,0,0,0,0,0,0,0,0,-0.008300781,0.090820313,1.037109375,0,0,0,0,0,0,0,0,0
1741043612,322895953,base_link,-0.008428402,0.019924831,0.8538669347763062,-0.520041585,0,0,0,0,0,0,0,0,0,-0.183105469,1.770019531,0.427246094,0,0,0,0,0,0,0,0,0,-0.014160156,0.078613281,0.994628906,0,0,0,0,0,0,0,0,0
1741043612,343726004,base_link,-0.010197251,0.021435873582959175,0.8539605140686035,-0.519796073,0,0,0,0,0,0,0,0,0,6.103515625,0.183105469,-2.685546875,0,0,0,0,0,0,0,0,0,-0.004882813,0.158203125,1.073242188,0,0,0,0,0,0,0,0,0
1741043612,362817508,base_link,-0.011911117,0.022964766,0.8542289733886719,-0.519253016,0,0,0,0,0,0,0,0,0,-0.427246094,6.225585938,-4.150390625,0,0,0,0,0,0,0,0,0,-0.007324219,0.227050781,0.984863281,0,0,0,0,0,0,0,0,0
1741043612,383305508,base_link,-0.013302416,0.023586899042129517,0.8546126484870911,-0.518559635,0,0,0,0,0,0,0,0,0,-2.319335938,4.699707031,-5.065917969,0,0,0,0,0,0,0,0,0,-0.038574219,0.189941406,0.98828125,0,0,0,0,0,0,0,0,0
1741043612,402685687,base_link,-0.015111069,0.025415336713194847,0.855019748,-0.517751992,0,0,0,0,0,0,0,0,0,7.507324219,1.525878906,-4.699707031,0,0,0,0,0,0,0,0,0,-0.033691406,0.2421875,1.083984375,0,0,0,0,0,0,0,0,0
1741043612,422513231,base_link,-0.015912298,0.027225604,0.8553240299224854,-0.517132938,0,0,0,0,0,0,0,0,0,-2.502441406,-5.859375,-2.319335938,0,0,0,0,0,0,0,0,0,-0.060546875,0.290527344,0.9140625,0,0,0,0,0,0,0,0,0
1741043612,442770124,base_link,-0.017003074,0.028389145,0.85545814,-0.516813576,0,0,0,0,0,0,0,0,0,1.403808594,2.014160156,-1.037597656,0,0,0,0,0,0,0,0,0,-0.002441406,0.24609375,1.061035156,0,0,0,0,0,0,0,0,0
1741043612,462814311,base_link,-0.017925875,0.030233476,0.8553626537322998,-0.516836047,0,0,0,0,0,0,0,0,0,2.9296875,-6.164550781,1.586914063,0,0,0,0,0,0,0,0,0,-0.037597656,0.228027344,1.05078125,0,0,0,0,0,0,0,0,0
1741043612,482542110,base_link,-0.017776188,0.031941291,0.8548810482025146,-0.517534673,0,0,0,0,0,0,0,0,0,-1.892089844,-8.178710938,5.859375,0,0,0,0,0,0,0,0,0,-0.026367188,0.22265625,0.93359375,0,0,0,0,0,0,0,0,0
1741043612,503425986,base_link,-0.019072514,0.033058471977710724,0.8539490103721619,-0.518955052,0,0,0,0,0,0,0,0,0,0.9765625,9.27734375,10.19287109,0,0,0,0,0,0,0,0,0,0.065917969,0.220214844,1.102050781,0,0,0,0,0,0,0,0,0
1741043612,522457266,base_link,-0.02010674,0.034859444946050644,0.8525609374046326,-0.521076143,0,0,0,0,0,0,0,0,0,3.784179688,-6.469726563,16.23535156,0,0,0,0,0,0,0,0,0,-0.054199219,0.209960938,1.099121094,0,0,0,0,0,0,0,0,0
1741043612,542541357,base_link,-0.020506332,0.036843299865722656,0.8505844473838806,-0.524145126,0,0,0,0,0,0,0,0,0,1.647949219,-0.732421875,22.03369141,0,0,0,0,0,0,0,0,0,0.018066406,0.203613281,1.01171875,0,0,0,0,0,0,0,0,0
1741043612,563874261,base_link,-0.021635352,0.038085107,0.8481131792068481,-0.528001428,0,0,0,0,0,0,0,0,0,2.746582031,3.051757813,26.06201172,0,0,0,0,0,0,0,0,0,0.050292969,0.192382813,0.996582031,0,0,0,0,0,0,0,0,0
1741043612,582494048,base_link,-0.02244159,0.0390912,0.8454544544219971,-0.532141984,0,0,0,0,0,0,0,0,0,-3.662109375,3.234863281,28.07617188,0,0,0,0,0,0,0,0,0,-0.001953125,0.232910156,0.900390625,0,0,0,0,0,0,0,0,0
1741043612,602658652,base_link,-0.02340428,0.041194085,0.8427583575248718,-0.536202967,0,0,0,0,0,0,0,0,0,5.37109375,2.075195313,27.22167969,0,0,0,0,0,0,0,0,0,0.020019531,0.232910156,1.092773438,0,0,0,0,0,0,0,0,0
1741043612,623311198,base_link,-0.023708541,0.042911366,0.8401629328727722,-0.540113747,0,0,0,0,0,0,0,0,0,-2.380371094,-3.662109375,28.07617188,0,0,0,0,0,0,0,0,0,-0.000976563,0.236328125,0.965332031,0,0,0,0,0,0,0,0,0
1741043612,643200663,base_link,-0.023277091,0.044414158910512924,0.8375319242477417,-0.544082582,0,0,0,0,0,0,0,0,0,-3.356933594,-1.403808594,28.19824219,0,0,0,0,0,0,0,0,0,0.024902344,0.23046875,0.942871094,0,0,0,0,0,0,0,0,0
1741043612,662478633,base_link,-0.023683965,0.045313745737075806,0.8347445130348206,-0.548258483,0,0,0,0,0,0,0,0,0,-5.554199219,3.356933594,31.31103516,0,0,0,0,0,0,0,0,0,0.028808594,0.212402344,0.994628906,0,0,0,0,0,0,0,0,0
1741043612,677697647,base_link,-0.024006674,0.046311755,0.8316364288330078,-0.552865088,0,0,0,0,0,0,0,0,0,-3.41796875,-3.41796875,33.87451172,0,0,0,0,0,0,0,0,0,-0.021484375,0.220214844,1.061523438,0,0,0,0,0,0,0,0,0
1741043612,702423997,base_link,-0.024164336,0.047455635,0.8283798098564148,-0.557629824,0,0,0,0,0,0,0,0,0,-2.502441406,-10.92529297,34.42382813,0,0,0,0,0,0,0,0,0,-0.027832031,0.229492188,1.061035156,0,0,0,0,0,0,0,0,0
1741043612,722638745,base_link,-0.024576362,0.048766684,0.8251473307609558,-0.562271953,0,0,0,0,0,0,0,0,0,-3.112792969,6.286621094,28.80859375,0,0,0,0,0,0,0,0,0,0.056152344,0.255371094,1.100097656,0,0,0,0,0,0,0,0,0
1741043612,742830005,base_link,-0.025715711,0.050376467406749725,0.8214929103851318,-0.567406714,0,0,0,0,0,0,0,0,0,5.554199219,3.967285156,32.59277344,0,0,0,0,0,0,0,0,0,0.008789063,0.225585938,1.152832031,0,0,0,0,0,0,0,0,0
1741043612,762824784,base_link,-0.026533946,0.050178844,0.8176326155662537,-0.572935343,0,0,0,0,0,0,0,0,0,-7.446289063,8.7890625,39.18457031,0,0,0,0,0,0,0,0,0,-0.005371094,0.256835938,0.838867188,0,0,0,0,0,0,0,0,0
1741043612,782594695,base_link,-0.027439939,0.052100822,0.8134986758232117,-0.578578115,0,0,0,0,0,0,0,0,0,9.033203125,-5.37109375,41.50390625,0,0,0,0,0,0,0,0,0,-0.037597656,0.1953125,1.017578125,0,0,0,0,0,0,0,0,0
1741043612,802468768,base_link,-0.02849186,0.053687129,0.8090547919273376,-0.58458215,0,0,0,0,0,0,0,0,0,1.037597656,-3.479003906,43.88427734,0,0,0,0,0,0,0,0,0,-0.036132813,0.253417969,0.896484375,0,0,0,0,0,0,0,0,0
1741043612,822586619,base_link,-0.027978515,0.054755989,0.8046392202377319,-0.590571642,0,0,0,0,0,0,0,0,0,-10.43701172,-7.751464844,44.31152344,0,0,0,0,0,0,0,0,0,-0.078125,0.29296875,0.983398438,0,0,0,0,0,0,0,0,0
1741043612,842555957,base_link,-0.029159006,0.054508392,0.7998836636543274,-0.596963048,0,0,0,0,0,0,0,0,0,-1.953125,9.155273438,47.11914063,0,0,0,0,0,0,0,0,0,-0.060058594,0.229492188,1.154785156,0,0,0,0,0,0,0,0,0
1741043612,862632336,base_link,-0.029828761,0.055143766,0.7952787280082703,-0.602993488,0,0,0,0,0,0,0,0,0,2.502441406,-12.26806641,41.87011719,0,0,0,0,0,0,0,0,0,-0.117675781,0.201171875,1.025390625,0,0,0,0,0,0,0,0,0
1741043612,882558026,base_link,-0.030498806,0.054842845,0.7916309237480164,-0.607768536,0,0,0,0,0,0,0,0,0,-9.521484375,6.958007813,30.70068359,0,0,0,0,0,0,0,0,0,-0.06640625,0.221191406,0.905273438,0,0,0,0,0,0,0,0,0
1741043612,903262731,base_link,-0.031726807,0.052675239741802216,0.7888868451118469,-0.611454308,0,0,0,0,0,0,0,0,0,-7.202148438,7.080078125,23.01025391,0,0,0,0,0,0,0,0,0,-0.197265625,0.116699219,1.058105469,0,0,0,0,0,0,0,0,0
1741043612,922451229,base_link,-0.031372186,0.050857842,0.7872304320335388,-0.613757014,0,0,0,0,0,0,0,0,0,-3.356933594,-3.845214844,11.71875,0,0,0,0,0,0,0,0,0,-0.098144531,-0.165039063,1.040039063,0,0,0,0,0,0,0,0,0
1741043612,944389580,base_link,-0.025953598,0.050410643219947815,0.7837801575660706,-0.6184448,0,0,0,0,0,0,0,0,0,-20.99609375,-13.06152344,50.04882813,0,0,0,0,0,0,0,0,0,0.715820313,-2.044921875,0.881347656,0,0,0,0,0,0,0,0,0
1741043612,962444401,base_link,-0.031290848,0.044728394597768784,0.7781322598457336,-0.625723898,0,0,0,0,0,0,0,0,0,17.45605469,57.6171875,68.42041016,0,0,0,0,0,0,0,0,0,1.197753906,-2.318359375,1.234375,0,0,0,0,0,0,0,0,0
1741043612,982499532,base_link,-0.03574964,0.046489239,0.7699092030525208,-0.635453165,0,0,0,0,0,0,0,0,0,21.484375,-6.896972656,79.40673828,0,0,0,0,0,0,0,0,0,-0.600585938,-0.355957031,1.281738281,0,0,0,0,0,0,0,0,0
1741043613,2509446,base_link,-0.036049284,0.047052428126335144,0.7618200182914734,-0.645071208,0,0,0,0,0,0,0,0,0,-21.36230469,22.82714844,67.13867188,0,0,0,0,0,0,0,0,0,-0.330566406,0.301757813,0.416015625,0,0,0,0,0,0,0,0,0
1741043613,24131122,base_link,-0.035726883,0.041538153,0.7541760206222534,-0.654382885,0,0,0,0,0,0,0,0,0,-23.25439453,13.97705078,70.98388672,0,0,0,0,0,0,0,0,0,-0.555664063,-0.040039063,0.887207031,0,0,0,0,0,0,0,0,0
1741043613,39994943,base_link,-0.035000127,0.038722809,0.7453227043151855,-0.664657652,0,0,0,0,0,0,0,0,0,-10.62011719,1.708984375,77.27050781,0,0,0,0,0,0,0,0,0,-0.718261719,-0.091796875,1.196777344,0,0,0,0,0,0,0,0,0
1741043613,63213404,base_link,-0.032715622,0.039509431,0.7372395396232605,-0.673681378,0,0,0,0,0,0,0,0,0,-0.122070313,-17.45605469,63.23242188,0,0,0,0,0,0,0,0,0,-0.215332031,-0.027832031,1.08984375,0,0,0,0,0,0,0,0,0
1741043613,78062846,base_link,-0.030926205,0.040069297,0.7319463491439819,-0.679479718,0,0,0,0,0,0,0,0,0,-0.366210938,0.183105469,29.78515625,0,0,0,0,0,0,0,0,0,0.293945313,-0.001953125,1.005371094,0,0,0,0,0,0,0,0,0
1741043613,102472072,base_link,-0.030584445,0.039140239,0.7303250432014465,-0.681291461,0,0,0,0,0,0,0,0,0,-0.244140625,5.615234375,10.86425781,0,0,0,0,0,0,0,0,0,-0.077148438,-0.001953125,1.014160156,0,0,0,0,0,0,0,0,0
1741043613,122308321,base_link,-0.031192295,0.038237497210502625,0.7297506928443909,-0.681930423,0,0,0,0,0,0,0,0,0,0.122070313,-3.662109375,2.9296875,0,0,0,0,0,0,0,0,0,-0.404296875,0.001953125,0.991699219,0,0,0,0,0,0,0,0,0
1741043613,142437820,base_link,-0.030777821,0.037907626,0.7301837801933289,-0.681503892,0,0,0,0,0,0,0,0,0,1.098632813,-11.29150391,-4.699707031,0,0,0,0,0,0,0,0,0,-0.139648438,0.009277344,0.990234375,0,0,0,0,0,0,0,0,0
1741043613,162686169,base_link,-0.029112753,0.038205940276384354,0.73120594,-0.680463552,0,0,0,0,0,0,0,0,0,2.746582031,-4.39453125,-9.765625,0,0,0,0,0,0,0,0,0,0.114257813,-0.010742188,1.032714844,0,0,0,0,0,0,0,0,0
1741043613,182550994,base_link,-0.027449537,0.039083100855350494,0.7318532466888428,-0.679786682,0,0,0,0,0,0,0,0,0,5.554199219,-12.26806641,-1.098632813,0,0,0,0,0,0,0,0,0,0.000488281,0.004882813,1.034179688,0,0,0,0,0,0,0,0,0
1741043613,202360618,base_link,-0.025877405,0.039495941,0.7313801050186157,-0.680333555,0,0,0,0,0,0,0,0,0,2.624511719,-5.798339844,7.141113281,0,0,0,0,0,0,0,0,0,0.020019531,0.024902344,1.012695313,0,0,0,0,0,0,0,0,0
1741043613,222413285,base_link,-0.02413376,0.039375238,0.7306731343269348,-0.681163669,0,0,0,0,0,0,0,0,0,-0.183105469,0,6.286621094,0,0,0,0,0,0,0,0,0,0.043457031,0.029296875,1.004394531,0,0,0,0,0,0,0,0,0
1741043613,242458335,base_link,-0.023315392,0.038134601,0.7301107048988342,-0.681865513,0,0,0,0,0,0,0,0,0,-0.48828125,-4.028320313,4.821777344,0,0,0,0,0,0,0,0,0,-0.0625,0.015625,1.023925781,0,0,0,0,0,0,0,0,0
1741043613,262649116,base_link,-0.023040866,0.036919151,0.7296959161758423,-0.682385623,0,0,0,0,0,0,0,0,0,0.915527344,-3.662109375,4.211425781,0,0,0,0,0,0,0,0,0,-0.058105469,0.01171875,1.014648438,0,0,0,0,0,0,0,0,0
1741043613,282345458,base_link,-0.022130953,0.035919603,0.7294516563415527,-0.682730138,0,0,0,0,0,0,0,0,0,0.244140625,-2.380371094,2.44140625,0,0,0,0,0,0,0,0,0,0.000976563,0.015136719,1.005859375,0,0,0,0,0,0,0,0,0
1741043613,303000596,base_link,-0.021287365,0.034529775,0.7292336225509644,-0.683061481,0,0,0,0,0,0,0,0,0,-0.183105469,-1.770019531,2.136230469,0,0,0,0,0,0,0,0,0,-0.014160156,0.022949219,1.012695313,0,0,0,0,0,0,0,0,0
1741043613,322428712,base_link,-0.020635651,0.032963909,0.7291154265403748,-0.683284998,0,0,0,0,0,0,0,0,0,-0.610351563,-0.671386719,1.037597656,0,0,0,0,0,0,0,0,0,-0.017578125,0.015625,1.016601563,0,0,0,0,0,0,0,0,0
1741043613,342425250,base_link,-0.020255221,0.031299207,0.7291957139968872,-0.683289051,0,0,0,0,0,0,0,0,0,0.48828125,-0.671386719,-0.427246094,0,0,0,0,0,0,0,0,0,-0.034179688,0.010253906,1.009765625,0,0,0,0,0,0,0,0,0
1741043613,362612670,base_link,-0.019963657,0.029734067618846893,0.7293509244918823,-0.68320173,0,0,0,0,0,0,0,0,0,0.122070313,-0.9765625,-1.098632813,0,0,0,0,0,0,0,0,0,-0.0234375,0.015136719,1.008300781,0,0,0,0,0,0,0,0,0
1741043613,382601048,base_link,-0.019245621,0.028165340423583984,0.7294735908508301,-0.683157861,0,0,0,0,0,0,0,0,0,0.122070313,-0.610351563,-0.305175781,0,0,0,0,0,0,0,0,0,-0.004394531,0.019042969,1.014160156,0,0,0,0,0,0,0,0,0
1741043613,402455536,base_link,-0.018436901,0.026556985452771187,0.7295225262641907,-0.683192372,0,0,0,0,0,0,0,0,0,-0.427246094,0.183105469,0.122070313,0,0,0,0,0,0,0,0,0,-0.008300781,0.015625,1.014160156,0,0,0,0,0,0,0,0,0
1741043613,422392202,base_link,-0.017963517,0.024818273,0.7295697331428528,-0.683219969,0,0,0,0,0,0,0,0,0,-0.122070313,0.061035156,0,0,0,0,0,0,0,0,0,0,-0.025390625,0.008789063,1.011230469,0,0,0,0,0,0,0,0,0
1741043613,444364634,base_link,-0.017580692,0.023119186982512474,0.7296684384346008,-0.683184147,0,0,0,0,0,0,0,0,0,-0.061035156,-0.244140625,-0.48828125,0,0,0,0,0,0,0,0,0,-0.026855469,0.006347656,1.012695313,0,0,0,0,0,0,0,0,0
1741043613,462440991,base_link,-0.017158315,0.021444745361804962,0.7297621965408325,-0.683149338,0,0,0,0,0,0,0,0,0,0.122070313,-0.671386719,-0.366210938,0,0,0,0,0,0,0,0,0,-0.018554688,0.012695313,1.015136719,0,0,0,0,0,0,0,0,0
1741043613,482425081,base_link,-0.016492143,0.019812759,0.7298291921615601,-0.683143437,0,0,0,0,0,0,0,0,0,-0.305175781,-0.427246094,-0.061035156,0,0,0,0,0,0,0,0,0,-0.013671875,0.016113281,1.011230469,0,0,0,0,0,0,0,0,0
1741043613,497550238,base_link,-0.01603446,0.018085138872265816,0.7298865914344788,-0.683140814,0,0,0,0,0,0,0,0,0,-0.122070313,-0.183105469,-0.244140625,0,0,0,0,0,0,0,0,0,-0.019042969,0.013183594,1.012695313,0,0,0,0,0,0,0,0,0
1741043613,522476174,base_link,-0.015638392,0.016327538,0.7299540638923645,-0.683122277,0,0,0,0,0,0,0,0,0,-0.244140625,-0.061035156,-0.244140625,0,0,0,0,0,0,0,0,0,-0.022460938,0.010742188,1.012207031,0,0,0,0,0,0,0,0,0
1741043613,542463432,base_link,-0.015205826,0.014636721462011337,0.7300218939781189,-0.683097839,0,0,0,0,0,0,0,0,0,0.061035156,-0.061035156,-0.183105469,0,0,0,0,0,0,0,0,0,-0.018554688,0.010253906,1.016113281,0,0,0,0,0,0,0,0,0
1741043613,562459586,base_link,-0.014607849,0.012906906194984913,0.7300946116447449,-0.683068097,0,0,0,0,0,0,0,0,0,-0.427246094,1.159667969,-0.305175781,0,0,0,0,0,0,0,0,0,-0.018066406,0.000976563,1.011230469,0,0,0,0,0,0,0,0,0
1741043613,582480540,base_link,-0.012843689,0.010446550324559212,0.7298628091812134,-0.6833933,0,0,0,0,0,0,0,0,0,-8.850097656,-3.967285156,3.662109375,0,0,0,0,0,0,0,0,0,-0.074707031,-0.246582031,0.964355469,0,0,0,0,0,0,0,0,0
1741043613,597628673,base_link,-0.010700106,0.0090135,0.7292590737342834,-0.684094608,0,0,0,0,0,0,0,0,0,-2.990722656,-2.990722656,7.8125,0,0,0,0,0,0,0,0,0,-0.0078125,-0.291503906,1.057617188,0,0,0,0,0,0,0,0,0
1741043613,622450288,base_link,-0.009222713,0.007646118,0.7280938625335693,-0.68537271,0,0,0,0,0,0,0,0,0,-3.173828125,-0.061035156,12.57324219,0,0,0,0,0,0,0,0,0,0.024902344,-0.303222656,0.996582031,0,0,0,0,0,0,0,0,0
1741043613,642918031,base_link,-0.007605935,0.00648769,0.7265930771827698,-0.686995268,0,0,0,0,0,0,0,0,0,-3.41796875,-3.051757813,14.95361328,0,0,0,0,0,0,0,0,0,0.017578125,-0.309570313,1.014160156,0,0,0,0,0,0,0,0,0
1741043613,663078379,base_link,-0.005973907,0.004792708,0.7246294617652893,-0.689096212,0,0,0,0,0,0,0,0,0,-3.295898438,-0.9765625,19.40917969,0,0,0,0,0,0,0,0,0,0.008300781,-0.331542969,1.006347656,0,0,0,0,0,0,0,0,0
1741043613,678043950,base_link,-0.004385799,0.00356099,0.7220893502235413,-0.691776812,0,0,0,0,0,0,0,0,0,-2.075195313,-4.699707031,22.82714844,0,0,0,0,0,0,0,0,0,-0.014160156,-0.34375,1.0234375,0,0,0,0,0,0,0,0,0
1741043613,702405144,base_link,-0.003110946,0.002213359,0.7189235091209412,-0.69507879,0,0,0,0,0,0,0,0,0,-3.601074219,2.502441406,28.13720703,0,0,0,0,0,0,0,0,0,0.024414063,-0.321777344,0.963867188,0,0,0,0,0,0,0,0,0
1741043613,717881057,base_link,-0.00151981,0.000578151,0.7152299284934998,-0.698887467,0,0,0,0,0,0,0,0,0,-3.662109375,-1.525878906,32.95898438,0,0,0,0,0,0,0,0,0,-0.000488281,-0.321289063,0.967285156,0,0,0,0,0,0,0,0,0
1741043613,743401847,base_link,0.000723563,-7.56E-05,0.7110442519187927,-0.703146994,0,0,0,0,0,0,0,0,0,-1.159667969,-7.995605469,36.68212891,0,0,0,0,0,0,0,0,0,0.010742188,-0.354003906,1.011230469,0,0,0,0,0,0,0,0,0
1741043613,762455783,base_link,0.003171115,-0.000327972,0.7068288922309875,-0.707377434,0,0,0,0,0,0,0,0,0,-3.662109375,-8.605957031,35.64453125,0,0,0,0,0,0,0,0,0,0.1328125,-0.326660156,1.005859375,0,0,0,0,0,0,0,0,0
1741043613,783787152,base_link,0.005346578,-0.000413303,0.7021743059158325,-0.711984932,0,0,0,0,0,0,0,0,0,0,-5.676269531,39.73388672,0,0,0,0,0,0,0,0,0,0.118652344,-0.384277344,1.067871094,0,0,0,0,0,0,0,0,0
1741043613,802744927,base_link,0.00670557,6.9995880949136335e-06,0.697469175,-0.716583431,0,0,0,0,0,0,0,0,0,4.821777344,-7.141113281,36.68212891,0,0,0,0,0,0,0,0,0,0.126953125,-0.317382813,1.0234375,0,0,0,0,0,0,0,0,0
1741043613,823074940,base_link,0.008265764,0.000295499,0.6925224661827087,-0.721348882,0,0,0,0,0,0,0,0,0,2.075195313,-6.469726563,37.65869141,0,0,0,0,0,0,0,0,0,0.091308594,-0.250488281,0.953125,0,0,0,0,0,0,0,0,0
1741043613,842582513,base_link,0.010290671,-0.000580446,0.6871017813682556,-0.726488054,0,0,0,0,0,0,0,0,0,-2.624511719,-6.652832031,41.56494141,0,0,0,0,0,0,0,0,0,0.067382813,-0.228515625,0.947753906,0,0,0,0,0,0,0,0,0
1741043613,858314685,base_link,0.012544491328299046,-0.001987773,0.680971622,-0.732199728,0,0,0,0,0,0,0,0,0,-3.234863281,-6.713867188,47.91259766,0,0,0,0,0,0,0,0,0,0.01953125,-0.256835938,0.99609375,0,0,0,0,0,0,0,0,0
1741043613,879278017,base_link,0.014533095061779022,-0.002418884,0.6742637753486633,-0.738343656,0,0,0,0,0,0,0,0,0,1.892089844,-10.92529297,50.78125,0,0,0,0,0,0,0,0,0,0.010742188,-0.274902344,1.023925781,0,0,0,0,0,0,0,0,0
1741043613,903220327,base_link,0.017046941444277763,-0.002415746,0.6670407056808472,-0.744822383,0,0,0,0,0,0,0,0,0,-3.540039063,-4.699707031,56.51855469,0,0,0,0,0,0,0,0,0,0.052734375,-0.228515625,0.928710938,0,0,0,0,0,0,0,0,0
1741043613,922993726,base_link,0.018556435,-0.002415261,0.659042478,-0.751872838,0,0,0,0,0,0,0,0,0,6.103515625,-5.249023438,61.95068359,0,0,0,0,0,0,0,0,0,0.079589844,-0.282226563,1.094238281,0,0,0,0,0,0,0,0,0
1741043613,942644213,base_link,0.020028671249747276,-0.001488535,0.6508640646934509,-0.758928597,0,0,0,0,0,0,0,0,0,3.662109375,-3.662109375,60.24169922,0,0,0,0,0,0,0,0,0,0.201660156,-0.166015625,1.050292969,0,0,0,0,0,0,0,0,0
1741043613,962472781,base_link,0.021528164,-0.000671843,0.642910898,-0.765638173,0,0,0,0,0,0,0,0,0,-0.9765625,-4.8828125,59.5703125,0,0,0,0,0,0,0,0,0,0.228515625,-0.125,1.011230469,0,0,0,0,0,0,0,0,0
1741043613,982525800,base_link,0.023181247,0.000369749,0.6347206830978394,-0.772393823,0,0,0,0,0,0,0,0,0,2.258300781,-1.403808594,60.85205078,0,0,0,0,0,0,0,0,0,0.204101563,-0.135742188,1.078125,0,0,0,0,0,0,0,0,0
1741043614,2605123,base_link,0.024017974734306335,0.000131987,0.6263350248336792,-0.779184043,0,0,0,0,0,0,0,0,0,-0.061035156,5.432128906,62.62207031,0,0,0,0,0,0,0,0,0,0.186035156,-0.107910156,0.938964844,0,0,0,0,0,0,0,0,0
1741043614,22554140,base_link,0.026160879,0.00025758,0.6177136301994324,-0.785967827,0,0,0,0,0,0,0,0,0,-1.708984375,-6.408691406,64.02587891,0,0,0,0,0,0,0,0,0,0.08203125,-0.115722656,0.959960938,0,0,0,0,0,0,0,0,0
1741043614,38315848,base_link,0.028564339503645897,0.000636343,0.6087672710418701,-0.792834163,0,0,0,0,0,0,0,0,0,-1.159667969,1.892089844,65.79589844,0,0,0,0,0,0,0,0,0,0.132324219,-0.092773438,1.033691406,0,0,0,0,0,0,0,0,0
1741043614,63058262,base_link,0.027777960523962975,0.002100074,0.5992541909217834,-0.800073981,0,0,0,0,0,0,0,0,0,10.13183594,-1.708984375,71.2890625,0,0,0,0,0,0,0,0,0,0.040527344,0.012695313,1.150390625,0,0,0,0,0,0,0,0,0
1741043614,82954511,base_link,0.026503829285502434,0.004209115,0.5888693332672119,-0.80778259,0,0,0,0,0,0,0,0,0,2.014160156,-14.52636719,73.73046875,0,0,0,0,0,0,0,0,0,0.002929688,0.110351563,0.916015625,0,0,0,0,0,0,0,0,0
1741043614,102526468,base_link,0.02728695,0.006426421,0.5783532857894897,-0.815304637,0,0,0,0,0,0,0,0,0,-9.704589844,-7.873535156,74.58496094,0,0,0,0,0,0,0,0,0,0.109375,0.127929688,0.871582031,0,0,0,0,0,0,0,0,0
1741043614,122526271,base_link,0.027933234348893166,0.007582311,0.5676342844963074,-0.822771907,0,0,0,0,0,0,0,0,0,-1.831054688,-3.41796875,76.04980469,0,0,0,0,0,0,0,0,0,0.119628906,0.087890625,1.035644531,0,0,0,0,0,0,0,0,0
1741043614,142701147,base_link,0.026784565299749374,0.011038897559046745,0.5565487146377563,-0.830309749,0,0,0,0,0,0,0,0,0,12.08496094,-15.74707031,77.39257813,0,0,0,0,0,0,0,0,0,0.05078125,0.183105469,1.087402344,0,0,0,0,0,0,0,0,0
1741043614,162646068,base_link,0.025710100308060646,0.013481756672263145,0.5456895232200623,-0.837484479,0,0,0,0,0,0,0,0,0,2.136230469,-4.028320313,72.32666016,0,0,0,0,0,0,0,0,0,0.180175781,0.225097656,0.955078125,0,0,0,0,0,0,0,0,0
1741043614,183112435,base_link,0.025657668709754944,0.015364884,0.5351231694221497,-0.844244599,0,0,0,0,0,0,0,0,0,0.122070313,-5.737304688,71.10595703,0,0,0,0,0,0,0,0,0,0.135253906,0.193359375,1.034667969,0,0,0,0,0,0,0,0,0
1741043614,197631730,base_link,0.023851389065384865,0.017586156725883484,0.5247223377227783,-0.85075748,0,0,0,0,0,0,0,0,0,11.77978516,-3.479003906,69.15283203,0,0,0,0,0,0,0,0,0,0.156738281,0.275390625,1.209472656,0,0,0,0,0,0,0,0,0
1741043614,223431371,base_link,0.022064249962568283,0.019333895295858383,0.5146362781524658,-0.856906652,0,0,0,0,0,0,0,0,0,6.958007813,-3.723144531,66.83349609,0,0,0,0,0,0,0,0,0,0.120117188,0.292480469,0.9921875,0,0,0,0,0,0,0,0,0
1741043614,242530107,base_link,0.020803557708859444,0.019418906420469284,0.5048205852508545,-0.86275512,0,0,0,0,0,0,0,0,0,-3.295898438,5.493164063,64.81933594,0,0,0,0,0,0,0,0,0,0.125976563,0.291503906,0.858398438,0,0,0,0,0,0,0,0,0
1741043614,262557430,base_link,0.019854361191391945,0.020241012796759605,0.49582135677337646,-0.867961586,0,0,0,0,0,0,0,0,0,2.685546875,-4.39453125,56.76269531,0,0,0,0,0,0,0,0,0,0.140625,0.231445313,1.074707031,0,0,0,0,0,0,0,0,0
1741043614,282450543,base_link,0.018599734,0.020837780088186264,0.48830971121788025,-0.872223318,0,0,0,0,0,0,0,0,0,-0.549316406,10.31494141,44.61669922,0,0,0,0,0,0,0,0,0,0.161132813,0.221191406,1.021972656,0,0,0,0,0,0,0,0,0
1741043614,302440809,base_link,0.016736398,0.019497247,0.4829525053501129,-0.875269473,0,0,0,0,0,0,0,0,0,-1.46484375,12.51220703,31.18896484,0,0,0,0,0,0,0,0,0,0.037597656,0.220703125,1.0078125,0,0,0,0,0,0,0,0,0
1741043614,322515332,base_link,0.014649240300059319,0.019400897,0.479312003,-0.877307832,0,0,0,0,0,0,0,0,0,4.699707031,3.90625,20.32470703,0,0,0,0,0,0,0,0,0,-0.067382813,0.196777344,1.059570313,0,0,0,0,0,0,0,0,0
1741043614,342664063,base_link,0.012405164539813995,0.019467419013381004,0.47721755504608154,-0.878482044,0,0,0,0,0,0,0,0,0,2.990722656,1.647949219,9.094238281,0,0,0,0,0,0,0,0,0,-0.031738281,0.204589844,0.985351563,0,0,0,0,0,0,0,0,0
1741043614,362557304,base_link,0.010735614225268364,0.019905276596546173,0.47662001848220825,-0.878818572,0,0,0,0,0,0,0,0,0,-0.549316406,3.234863281,0.671386719,0,0,0,0,0,0,0,0,0,0.011230469,0.215820313,0.990722656,0,0,0,0,0,0,0,0,0
1741043614,382510418,base_link,0.008788772,0.020204972475767136,0.47665244340896606,-0.87881577,0,0,0,0,0,0,0,0,0,1.770019531,1.037597656,-1.525878906,0,0,0,0,0,0,0,0,0,0.000488281,0.175292969,1.0546875,0,0,0,0,0,0,0,0,0
1741043614,402685070,base_link,0.007051344,0.020824266597628593,0.47664016485214233,-0.878823578,0,0,0,0,0,0,0,0,0,-0.122070313,1.098632813,-0.915527344,0,0,0,0,0,0,0,0,0,0.010253906,0.172363281,0.995117188,0,0,0,0,0,0,0,0,0
1741043614,422596135,base_link,0.005583301,0.021174954250454903,0.4764501452445984,-0.878928661,0,0,0,0,0,0,0,0,0,-2.807617188,4.272460938,1.525878906,0,0,0,0,0,0,0,0,0,0.041992188,0.1640625,0.987792969,0,0,0,0,0,0,0,0,0
1741043614,442713923,base_link,0.004153098,0.021274613216519356,0.4761398732662201,-0.879102468,0,0,0,0,0,0,0,0,0,-2.197265625,2.746582031,2.990722656,0,0,0,0,0,0,0,0,0,0.006347656,0.130859375,1.0078125,0,0,0,0,0,0,0,0,0
1741043614,467116173,base_link,0.002612301,0.021013684570789337,0.47574061155319214,-0.879330695,0,0,0,0,0,0,0,0,0,0,-1.525878906,2.868652344,0,0,0,0,0,0,0,0,0,-0.051757813,0.110351563,1.010742188,0,0,0,0,0,0,0,0,0
1741043614,484212423,base_link,0.001152925,0.02081674,0.4753725826740265,-0.879537523,0,0,0,0,0,0,0,0,0,-0.854492188,-3.051757813,3.234863281,0,0,0,0,0,0,0,0,0,-0.053710938,0.104980469,1.013671875,0,0,0,0,0,0,0,0,0
1741043614,502563567,base_link,-0.000210198,0.020991068333387375,0.47507116198539734,-0.879697084,0,0,0,0,0,0,0,0,0,-0.427246094,-2.685546875,2.319335938,0,0,0,0,0,0,0,0,0,-0.013183594,0.098144531,1.014648438,0,0,0,0,0,0,0,0,0
1741043614,522473737,base_link,-0.001700797,0.021260082721710205,0.4748689830303192,-0.879798114,0,0,0,0,0,0,0,0,0,-0.061035156,-1.953125,2.319335938,0,0,0,0,0,0,0,0,0,0.001953125,0.086425781,1.017578125,0,0,0,0,0,0,0,0,0
1741043614,542892679,base_link,-0.003333089,0.021290458738803864,0.4745516777038574,-0.879963934,0,0,0,0,0,0,0,0,0,0.732421875,-1.46484375,3.662109375,0,0,0,0,0,0,0,0,0,-0.012695313,0.074707031,1.014648438,0,0,0,0,0,0,0,0,0
1741043614,557906283,base_link,-0.004687334,0.021042851731181145,0.4739428460597992,-0.8802917,0,0,0,0,0,0,0,0,0,-1.892089844,-2.197265625,4.821777344,0,0,0,0,0,0,0,0,0,-0.0234375,0.0859375,0.973632813,0,0,0,0,0,0,0,0,0
1741043614,582614201,base_link,-0.005630662,0.02012329,0.4733387529850006,-0.880632639,0,0,0,0,0,0,0,0,0,-8.728027344,-0.122070313,3.601074219,0,0,0,0,0,0,0,0,0,-0.000488281,0.044921875,0.985351563,0,0,0,0,0,0,0,0,0
1741043614,603960865,base_link,-0.003133008,0.017806541174650192,0.47272300720214844,-0.881025672,0,0,0,0,0,0,0,0,0,-9.27734375,-0.122070313,3.784179688,0,0,0,0,0,0,0,0,0,-0.005371094,-0.153808594,1.039550781,0,0,0,0,0,0,0,0,0
1741043614,622426475,base_link,-0.00077803,0.015900699,0.47199565172195435,-0.88145715,0,0,0,0,0,0,0,0,0,-6.469726563,1.525878906,3.845214844,0,0,0,0,0,0,0,0,0,-0.003417969,-0.221191406,1.010742188,0,0,0,0,0,0,0,0,0
1741043614,642448165,base_link,0.001545663,0.014240787364542484,0.4712529182434082,-0.881881833,0,0,0,0,0,0,0,0,0,-6.225585938,0.244140625,4.516601563,0,0,0,0,0,0,0,0,0,-0.014160156,-0.225097656,0.954101563,0,0,0,0,0,0,0,0,0
1741043614,662483168,base_link,0.003115129,0.012198910117149353,0.4704349637031555,-0.882344842,0,0,0,0,0,0,0,0,0,-1.342773438,10.80322266,4.760742188,0,0,0,0,0,0,0,0,0,0.049804688,-0.270019531,1.071289063,0,0,0,0,0,0,0,0,0
1741043614,683536709,base_link,0.004036802,0.011005262844264507,0.4699781537055969,-0.882600188,0,0,0,0,0,0,0,0,0,0.244140625,-1.770019531,1.892089844,0,0,0,0,0,0,0,0,0,0.033203125,-0.249511719,1.076171875,0,0,0,0,0,0,0,0,0
1741043614,702545621,base_link,0.005915266,0.010094420984387398,0.4695415198802948,-0.882832885,0,0,0,0,0,0,0,0,0,-5.493164063,2.197265625,2.624511719,0,0,0,0,0,0,0,0,0,0.006347656,-0.243164063,1.013671875,0,0,0,0,0,0,0,0,0
1741043614,722587375,base_link,0.007196069,0.008266132,0.4689773917198181,-0.883142292,0,0,0,0,0,0,0,0,0,-1.46484375,8.178710938,4.211425781,0,0,0,0,0,0,0,0,0,0.026855469,-0.291992188,1.028320313,0,0,0,0,0,0,0,0,0
1741043614,737849078,base_link,0.007680373,0.005905769,0.4681956171989441,-0.883571863,0,0,0,0,0,0,0,0,0,-0.061035156,7.8125,4.760742188,0,0,0,0,0,0,0,0,0,-0.005859375,-0.261230469,0.918945313,0,0,0,0,0,0,0,0,0
1741043614,762704549,base_link,0.009371967,0.005104141,0.46758759021759033,-0.883882344,0,0,0,0,0,0,0,0,0,-0.48828125,-7.8125,4.638671875,0,0,0,0,0,0,0,0,0,-0.069335938,-0.244140625,0.963378906,0,0,0,0,0,0,0,0,0
1741043614,782561469,base_link,0.010977850295603275,0.003945236,0.46716591715812683,-0.884092748,0,0,0,0,0,0,0,0,0,-0.427246094,7.263183594,2.014160156,0,0,0,0,0,0,0,0,0,0.069335938,-0.256835938,1.059570313,0,0,0,0,0,0,0,0,0
1741043614,802378101,base_link,0.012152403,0.002778042,0.46723631024360657,-0.884044647,0,0,0,0,0,0,0,0,0,0.915527344,0.427246094,0.366210938,0,0,0,0,0,0,0,0,0,0.014160156,-0.23046875,1.038574219,0,0,0,0,0,0,0,0,0
1741043614,822579378,base_link,0.013108305,0.001729162,0.46690672636032104,-0.884207666,0,0,0,0,0,0,0,0,0,1.098632813,-1.525878906,3.234863281,0,0,0,0,0,0,0,0,0,-0.086914063,-0.227050781,0.964355469,0,0,0,0,0,0,0,0,0
1741043614,838537216,base_link,0.014386053197085857,0.001363742,0.4661102890968323,-0.884608686,0,0,0,0,0,0,0,0,0,0.9765625,-9.094238281,5.37109375,0,0,0,0,0,0,0,0,0,-0.094238281,-0.209960938,0.99609375,0,0,0,0,0,0,0,0,0
1741043614,863933173,base_link,0.015753116458654404,0.001317555,0.46530821919441223,-0.88500756,0,0,0,0,0,0,0,0,0,1.708984375,-5.676269531,4.821777344,0,0,0,0,0,0,0,0,0,-0.006347656,-0.201171875,1.001464844,0,0,0,0,0,0,0,0,0
1741043614,880815949,base_link,0.017569965,0.001373075,0.46441197395324707,-0.885443985,0,0,0,0,0,0,0,0,0,0.48828125,-5.249023438,5.554199219,0,0,0,0,0,0,0,0,0,0.038574219,-0.162597656,0.965332031,0,0,0,0,0,0,0,0,0
1741043614,902768060,base_link,0.01961733,0.002429448,0.4629083275794983,-0.886185706,0,0,0,0,0,0,0,0,0,4.516601563,-14.6484375,12.63427734,0,0,0,0,0,0,0,0,0,0.024414063,-0.177246094,1.000976563,0,0,0,0,0,0,0,0,0
1741043614,922411699,base_link,0.021190527826547623,0.005282129,0.4598385989665985,-0.887733936,0,0,0,0,0,0,0,0,0,11.59667969,-11.71875,20.56884766,0,0,0,0,0,0,0,0,0,0.155761719,-0.136230469,1.117675781,0,0,0,0,0,0,0,0,0
1741043614,942358860,base_link,0.020935081,0.007186864,0.45563995838165283,-0.889888883,0,0,0,0,0,0,0,0,0,11.16943359,-5.065917969,30.45654297,0,0,0,0,0,0,0,0,0,0.209960938,-0.09765625,1.091308594,0,0,0,0,0,0,0,0,0
1741043614,957577330,base_link,0.021593116223812103,0.010870838537812233,0.44981154799461365,-0.892796278,0,0,0,0,0,0,0,0,0,11.47460938,-16.84570313,39.85595703,0,0,0,0,0,0,0,0,0,0.100585938,-0.062988281,1.061523438,0,0,0,0,0,0,0,0,0
1741043614,983675087,base_link,0.021708743646740913,0.013059902004897594,0.4426964223384857,-0.896313548,0,0,0,0,0,0,0,0,0,4.39453125,2.746582031,47.60742188,0,0,0,0,0,0,0,0,0,0.243164063,-0.030273438,0.919921875,0,0,0,0,0,0,0,0,0
1741043615,2473500,base_link,0.022749299183487892,0.014726695,0.43422141671180725,-0.900398493,0,0,0,0,0,0,0,0,0,-0.549316406,-10.37597656,57.37304688,0,0,0,0,0,0,0,0,0,0.098144531,-0.020019531,0.929199219,0,0,0,0,0,0,0,0,0
1741043615,22747001,base_link,0.023535296320915222,0.016201892867684364,0.42448189854621887,-0.904985547,0,0,0,0,0,0,0,0,0,-0.915527344,12.6953125,62.31689453,0,0,0,0,0,0,0,0,0,0.224121094,-0.029785156,1.014648438,0,0,0,0,0,0,0,0,0
1741043615,42653554,base_link,0.024114951491355896,0.017641564831137657,0.41385185718536377,-0.909853816,0,0,0,0,0,0,0,0,0,4.943847656,-13.79394531,70.55664063,0,0,0,0,0,0,0,0,0,0.0703125,-0.032226563,0.987792969,0,0,0,0,0,0,0,0,0
1741043615,62517675,base_link,0.023423288017511368,0.019766945391893387,0.4017953872680664,-0.915216446,0,0,0,0,0,0,0,0,0,-2.258300781,-13.00048828,77.27050781,0,0,0,0,0,0,0,0,0,0.068847656,0.098632813,0.9609375,0,0,0,0,0,0,0,0,0
1741043615,82882889,base_link,0.022983972,0.021839560940861702,0.3885851800441742,-0.920867205,0,0,0,0,0,0,0,0,0,0.915527344,-5.249023438,83.80126953,0,0,0,0,0,0,0,0,0,0.135742188,0.104980469,1.041992188,0,0,0,0,0,0,0,0,0
1741043615,102537663,base_link,0.023303634,0.023708077147603035,0.3748893737792969,-0.92647332,0,0,0,0,0,0,0,0,0,-9.094238281,-10.7421875,86.73095703,0,0,0,0,0,0,0,0,0,0.059082031,0.107910156,0.928222656,0,0,0,0,0,0,0,0,0
1741043615,123088831,base_link,0.024165218695998192,0.025884326547384262,0.3606754541397095,-0.932018995,0,0,0,0,0,0,0,0,0,-4.455566406,-10.19287109,88.74511719,0,0,0,0,0,0,0,0,0,0.119140625,0.039550781,1.032226563,0,0,0,0,0,0,0,0,0
1741043615,142507955,base_link,0.023984948,0.02825569,0.3459884226322174,-0.937506557,0,0,0,0,0,0,0,0,0,6.34765625,0,88.19580078,0,0,0,0,0,0,0,0,0,0.236328125,0.065429688,1.100585938,0,0,0,0,0,0,0,0,0
1741043615,158417792,base_link,0.023514436557888985,0.029090022668242455,0.3320483863353729,-0.942520499,0,0,0,0,0,0,0,0,0,0.9765625,-3.051757813,83.984375,0,0,0,0,0,0,0,0,0,0.237792969,0.110839844,1.042480469,0,0,0,0,0,0,0,0,0
1741043615,182803850,base_link,0.024476954713463783,0.030790353193879128,0.31917113065719604,-0.946880519,0,0,0,0,0,0,0,0,0,-10.00976563,-3.234863281,75.07324219,0,0,0,0,0,0,0,0,0,0.212890625,0.115234375,0.977539063,0,0,0,0,0,0,0,0,0
1741043615,202853445,base_link,0.025199811905622482,0.030041059479117393,0.3084847629070282,-0.950420797,0,0,0,0,0,0,0,0,0,-4.943847656,12.14599609,58.22753906,0,0,0,0,0,0,0,0,0,0.278808594,0.076171875,1.097167969,0,0,0,0,0,0,0,0,0
1741043615,222408634,base_link,0.024432184174656868,0.029786101,0.30046921968460083,-0.953013182,0,0,0,0,0,0,0,0,0,0.122070313,2.990722656,42.72460938,0,0,0,0,0,0,0,0,0,0.084960938,0.061523438,1.049804688,0,0,0,0,0,0,0,0,0
1741043615,242691704,base_link,0.023061993,0.029178798,0.295166939,-0.95472157,0,0,0,0,0,0,0,0,0,-3.662109375,8.911132813,26.61132813,0,0,0,0,0,0,0,0,0,0.083007813,0.09375,0.899902344,0,0,0,0,0,0,0,0,0
1741043615,262580176,base_link,0.021928466856479645,0.028385894373059273,0.292176217,-0.955691576,0,0,0,0,0,0,0,0,0,-7.8125,2.807617188,14.03808594,0,0,0,0,0,0,0,0,0,0.025390625,0.104980469,0.936523438,0,0,0,0,0,0,0,0,0
1741043615,282539722,base_link,0.020875804126262665,0.028035481,0.29069405794143677,-0.956177413,0,0,0,0,0,0,0,0,0,0.244140625,2.624511719,6.225585938,0,0,0,0,0,0,0,0,0,0.031738281,0.059082031,1.091796875,0,0,0,0,0,0,0,0,0
1741043615,302739110,base_link,0.018579520285129547,0.027826378121972084,0.28993722796440125,-0.956460595,0,0,0,0,0,0,0,0,0,2.319335938,-1.953125,4.699707031,0,0,0,0,0,0,0,0,0,0.013183594,0.073242188,0.999511719,0,0,0,0,0,0,0,0,0
1741043615,322544606,base_link,0.01790694,0.027839839458465576,0.28888460993766785,-0.95679158,0,0,0,0,0,0,0,0,0,-9.521484375,-3.90625,8.483886719,0,0,0,0,0,0,0,0,0,-0.011230469,0.119628906,1.001464844,0,0,0,0,0,0,0,0,0
1741043615,342955485,base_link,0.017288277,0.026922162622213364,0.2874332666397095,-0.957266152,0,0,0,0,0,0,0,0,0,-5.37109375,6.408691406,10.43701172,0,0,0,0,0,0,0,0,0,0.051269531,0.067871094,1.114257813,0,0,0,0,0,0,0,0,0
1741043615,362621587,base_link,0.015889376401901245,0.027305036783218384,0.2856076955795288,-0.95782578,0,0,0,0,0,0,0,0,0,4.089355469,-13.06152344,10.92529297,0,0,0,0,0,0,0,0,0,-0.060058594,0.052734375,1.067871094,0,0,0,0,0,0,0,0,0
1741043615,382709967,base_link,0.014110225,0.028019215911626816,0.28406527638435364,-0.958291531,0,0,0,0,0,0,0,0,0,4.516601563,5.126953125,7.507324219,0,0,0,0,0,0,0,0,0,0.104980469,0.092773438,1.031738281,0,0,0,0,0,0,0,0,0
1741043615,402571687,base_link,0.012297059409320354,0.028132284060120583,0.28311654925346375,-0.958594024,0,0,0,0,0,0,0,0,0,3.356933594,3.723144531,5.798339844,0,0,0,0,0,0,0,0,0,0.105957031,0.097167969,1.052734375,0,0,0,0,0,0,0,0,0
1741043615,422479904,base_link,0.010855002328753471,0.027878189459443092,0.28218647837638855,-0.958893001,0,0,0,0,0,0,0,0,0,-1.770019531,1.46484375,6.225585938,0,0,0,0,0,0,0,0,0,0.026855469,0.091796875,1.00390625,0,0,0,0,0,0,0,0,0
1741043615,442519003,base_link,0.009200864,0.028051381930708885,0.2812963128089905,-0.959166765,0,0,0,0,0,0,0,0,0,2.868652344,-2.868652344,4.455566406,0,0,0,0,0,0,0,0,0,0.041992188,0.067382813,1.020996094,0,0,0,0,0,0,0,0,0
1741043615,462821080,base_link,0.007852629,0.027921887,0.28085774183273315,-0.959311008,0,0,0,0,0,0,0,0,0,-3.112792969,7.690429688,2.197265625,0,0,0,0,0,0,0,0,0,0.08203125,0.084472656,0.969238281,0,0,0,0,0,0,0,0,0
1741043615,477662490,base_link,0.006726003,0.027422841638326645,0.2803088426589966,-0.959494531,0,0,0,0,0,0,0,0,0,-1.46484375,-6.042480469,4.760742188,0,0,0,0,0,0,0,0,0,-0.053222656,0.046386719,1.018066406,0,0,0,0,0,0,0,0,0
1741043615,502393768,base_link,0.005738813,0.026402643,0.2795822024345398,-0.959741592,0,0,0,0,0,0,0,0,0,-1.892089844,6.713867188,2.990722656,0,0,0,0,0,0,0,0,0,0.021972656,0.043945313,1.006835938,0,0,0,0,0,0,0,0,0
1741043615,522708837,base_link,0.003995116,0.023971648886799812,0.2797929346561432,-0.959752738,0,0,0,0,0,0,0,0,0,-0.671386719,9.643554688,-3.356933594,0,0,0,0,0,0,0,0,0,-0.005371094,0.020996094,0.955078125,0,0,0,0,0,0,0,0,0
1741043615,542899970,base_link,0.003449438,0.021334503,0.28134772181510925,-0.959362507,0,0,0,0,0,0,0,0,0,-4.211425781,2.075195313,-13.85498047,0,0,0,0,0,0,0,0,0,-0.116699219,0.047363281,0.95703125,0,0,0,0,0,0,0,0,0
1741043615,557555393,base_link,0.002907237,0.018697015941143036,0.2849368453025818,-0.958359599,0,0,0,0,0,0,0,0,0,-1.953125,8.7890625,-24.96337891,0,0,0,0,0,0,0,0,0,-0.077636719,0.007324219,1.026367188,0,0,0,0,0,0,0,0,0
1741043615,582822485,base_link,0.003497027,0.015545249916613102,0.28970566391944885,-0.956983209,0,0,0,0,0,0,0,0,0,-7.446289063,5.187988281,-31.25,0,0,0,0,0,0,0,0,0,-0.133300781,-0.10546875,0.932617188,0,0,0,0,0,0,0,0,0
1741043615,602795439,base_link,0.0054831,0.013520653359591961,0.2950984239578247,-0.955355465,0,0,0,0,0,0,0,0,0,-8.422851563,-2.319335938,-31.67724609,0,0,0,0,0,0,0,0,0,-0.205078125,-0.12890625,1.027832031,0,0,0,0,0,0,0,0,0
1741043615,623297806,base_link,0.006138253,0.011416284367442131,0.30020686984062195,-0.953786135,0,0,0,0,0,0,0,0,0,0.854492188,6.896972656,-29.66308594,0,0,0,0,0,0,0,0,0,-0.082519531,-0.106933594,1.16796875,0,0,0,0,0,0,0,0,0
1741043615,642522048,base_link,0.006161586,0.010333608835935593,0.3050071597099304,-0.952274024,0,0,0,0,0,0,0,0,0,-1.037597656,-7.995605469,-27.83203125,0,0,0,0,0,0,0,0,0,-0.154296875,-0.100585938,0.989746094,0,0,0,0,0,0,0,0,0
1741043615,657925448,base_link,0.007129041,0.009281272,0.30968472361564636,-0.950767398,0,0,0,0,0,0,0,0,0,0.671386719,3.173828125,-28.56445313,0,0,0,0,0,0,0,0,0,-0.06640625,-0.188476563,1.03515625,0,0,0,0,0,0,0,0,0
1741043615,683346301,base_link,0.007760291,0.008194535,0.314291775,-0.949259341,0,0,0,0,0,0,0,0,0,2.990722656,-0.671386719,-29.78515625,0,0,0,0,0,0,0,0,0,-0.013183594,-0.193359375,1.014648438,0,0,0,0,0,0,0,0,0
1741043615,703082292,base_link,0.009191879,0.007467111,0.31928786635398865,-0.947583854,0,0,0,0,0,0,0,0,0,-3.234863281,2.075195313,-27.64892578,0,0,0,0,0,0,0,0,0,-0.014160156,-0.216308594,0.951660156,0,0,0,0,0,0,0,0,0
1741043615,723616308,base_link,0.010913079604506493,0.006903008,0.32274189591407776,-0.946398973,0,0,0,0,0,0,0,0,0,2.258300781,-7.446289063,-16.35742188,0,0,0,0,0,0,0,0,0,-0.0546875,-0.231445313,1.070800781,0,0,0,0,0,0,0,0,0
1741043615,738527479,base_link,0.011256180703639984,0.00774084,0.32399293780326843,-0.945960879,0,0,0,0,0,0,0,0,0,10.55908203,-4.028320313,-4.455566406,0,0,0,0,0,0,0,0,0,0.023925781,-0.1953125,1.120605469,0,0,0,0,0,0,0,0,0
1741043615,763048002,base_link,0.011495919898152351,0.007354975,0.3243270218372345,-0.945846617,0,0,0,0,0,0,0,0,0,-0.366210938,11.71875,-0.48828125,0,0,0,0,0,0,0,0,0,0.114257813,-0.098632813,0.924316406,0,0,0,0,0,0,0,0,0
1741043615,783654595,base_link,0.013444204814732075,0.005736546,0.3240683972835541,-0.945920765,0,0,0,0,0,0,0,0,0,-4.516601563,0.854492188,2.197265625,0,0,0,0,0,0,0,0,0,-0.044433594,-0.116210938,0.864746094,0,0,0,0,0,0,0,0,0
1741043615,802847732,base_link,0.015374231152236462,0.00554446,0.3235841691493988,-0.946058333,0,0,0,0,0,0,0,0,0,-3.601074219,-5.065917969,2.624511719,0,0,0,0,0,0,0,0,0,-0.043457031,-0.105957031,0.981445313,0,0,0,0,0,0,0,0,0
1741043615,822762318,base_link,0.016964884474873543,0.003837093,0.3233146071434021,-0.946131706,0,0,0,0,0,0,0,0,0,1.159667969,6.408691406,0.9765625,0,0,0,0,0,0,0,0,0,0.027832031,-0.121582031,0.987304688,0,0,0,0,0,0,0,0,0
1741043615,840868563,base_link,0.017802506685256958,0.003917679,0.3228474259376526,-0.946275473,0,0,0,0,0,0,0,0,0,-2.197265625,-11.59667969,1.281738281,0,0,0,0,0,0,0,0,0,-0.124023438,-0.071777344,1.030761719,0,0,0,0,0,0,0,0,0
1741043615,862868995,base_link,0.018652154,0.002744484,0.3223635256290436,-0.946428239,0,0,0,0,0,0,0,0,0,0.366210938,6.408691406,3.112792969,0,0,0,0,0,0,0,0,0,0.01953125,-0.071777344,1.145507813,0,0,0,0,0,0,0,0,0
1741043615,877723109,base_link,0.018848299980163574,0.001964322,0.3219030499458313,-0.946583033,0,0,0,0,0,0,0,0,0,5.432128906,1.159667969,3.295898438,0,0,0,0,0,0,0,0,0,0.0078125,-0.085449219,1.131835938,0,0,0,0,0,0,0,0,0
1741043615,902704309,base_link,0.018264058977365494,0.002183324,0.3212334215641022,-0.946821392,0,0,0,0,0,0,0,0,0,7.873535156,-5.493164063,3.234863281,0,0,0,0,0,0,0,0,0,-0.020996094,-0.072265625,0.944335938,0,0,0,0,0,0,0,0,0
1741043615,918449217,base_link,0.018570989,0.00292687,0.3208348751068115,-0.946948647,0,0,0,0,0,0,0,0,0,5.249023438,5.187988281,2.502441406,0,0,0,0,0,0,0,0,0,0.098632813,-0.045898438,0.903808594,0,0,0,0,0,0,0,0,0
1741043615,938400539,base_link,0.018611738458275795,0.003222155,0.3205488622188568,-0.947043717,0,0,0,0,0,0,0,0,0,1.220703125,-11.16943359,1.892089844,0,0,0,0,0,0,0,0,0,-0.044921875,-0.025390625,0.980957031,0,0,0,0,0,0,0,0,0
1741043615,957967440,base_link,0.018413526937365532,0.004064144,0.3204096257686615,-0.947091401,0,0,0,0,0,0,0,0,0,7.019042969,5.676269531,-2.258300781,0,0,0,0,0,0,0,0,0,0.104492188,-0.059570313,1.140625,0,0,0,0,0,0,0,0,0
1741043615,983024833,base_link,0.017920002341270447,0.004423546,0.3207666575908661,-0.94697845,0,0,0,0,0,0,0,0,0,-0.915527344,2.014160156,-1.708984375,0,0,0,0,0,0,0,0,0,0.03515625,-0.004882813,0.897949219,0,0,0,0,0,0,0,0,0
1741043616,2810809,base_link,0.017949734,0.004470747,0.32080066204071045,-0.946966171,0,0,0,0,0,0,0,0,0,-2.075195313,-12.32910156,-0.48828125,0,0,0,0,0,0,0,0,0,-0.083496094,-0.020507813,0.948730469,0,0,0,0,0,0,0,0,0
1741043616,22481264,base_link,0.017946064472198486,0.005108344,0.32095766067504883,-0.946909785,0,0,0,0,0,0,0,0,0,-6.34765625,5.554199219,0.732421875,0,0,0,0,0,0,0,0,0,0.058105469,-0.008789063,0.963378906,0,0,0,0,0,0,0,0,0
1741043616,42989519,base_link,0.017202813178300858,0.005151432,0.3209138810634613,-0.946938217,0,0,0,0,0,0,0,0,0,2.563476563,-6.8359375,1.098632813,0,0,0,0,0,0,0,0,0,-0.053710938,-0.020019531,1.084472656,0,0,0,0,0,0,0,0,0
1741043616,62768775,base_link,0.01609955,0.005998884,0.3207319676876068,-0.947014153,0,0,0,0,0,0,0,0,0,4.577636719,-4.272460938,-0.854492188,0,0,0,0,0,0,0,0,0,0.004882813,0.011230469,1.15234375,0,0,0,0,0,0,0,0,0
1741043616,82762305,base_link,0.014762574,0.005674473,0.321071982,-0.946922779,0,0,0,0,0,0,0,0,0,5.187988281,4.577636719,-1.46484375,0,0,0,0,0,0,0,0,0,0.104003906,-0.004394531,1.110839844,0,0,0,0,0,0,0,0,0
1741043616,102975293,base_link,0.013561821542680264,0.006346672,0.3212476372718811,-0.946876824,0,0,0,0,0,0,0,0,0,1.098632813,-10.37597656,-1.037597656,0,0,0,0,0,0,0,0,0,-0.058105469,0.012207031,0.874023438,0,0,0,0,0,0,0,0,0
1741043616,122844022,base_link,0.012734951,0.006574732,0.3216414451599121,-0.946753085,0,0,0,0,0,0,0,0,0,-0.732421875,11.84082031,-2.685546875,0,0,0,0,0,0,0,0,0,0.094238281,-0.001953125,0.875976563,0,0,0,0,0,0,0,0,0
1741043616,142712239,base_link,0.012437261641025543,0.005741756,0.3217003047466278,-0.946742594,0,0,0,0,0,0,0,0,0,-2.014160156,-8.117675781,0.915527344,0,0,0,0,0,0,0,0,0,-0.103515625,0.009765625,0.993164063,0,0,0,0,0,0,0,0,0
1741043616,163001932,base_link,0.011372742243111134,0.005418838,0.3216107189655304,-0.946788192,0,0,0,0,0,0,0,0,0,1.281738281,7.019042969,-0.48828125,0,0,0,0,0,0,0,0,0,0.012207031,-0.010742188,1.146972656,0,0,0,0,0,0,0,0,0
1741043616,182918437,base_link,0.010359015315771103,0.003681446,0.3220031261444092,-0.946674764,0,0,0,0,0,0,0,0,0,-6.103515625,14.34326172,-4.150390625,0,0,0,0,0,0,0,0,0,-0.000488281,0.047363281,0.948730469,0,0,0,0,0,0,0,0,0
1741043616,203023936,base_link,0.009867152,0.002076922,0.32364997267723083,-0.946123183,0,0,0,0,0,0,0,0,0,-2.9296875,-2.685546875,-14.70947266,0,0,0,0,0,0,0,0,0,-0.15625,0.025390625,0.956542969,0,0,0,0,0,0,0,0,0
1741043616,222842649,base_link,0.009075173,0.001188612,0.3273767828941345,-0.944849551,0,0,0,0,0,0,0,0,0,-1.342773438,4.333496094,-26.06201172,0,0,0,0,0,0,0,0,0,-0.062011719,0.05078125,0.96875,0,0,0,0,0,0,0,0,0
1741043616,244515781,base_link,0.006349496,-0.000937648,0.3331280052661896,-0.942859769,0,0,0,0,0,0,0,0,0,3.540039063,2.502441406,-40.46630859,0,0,0,0,0,0,0,0,0,-0.106445313,0.053710938,1.054199219,0,0,0,0,0,0,0,0,0
1741043616,263410995,base_link,0.004919372,-0.001529705,0.34072738885879517,-0.940148056,0,0,0,0,0,0,0,0,0,2.746582031,4.8828125,-52.49023438,0,0,0,0,0,0,0,0,0,-0.118652344,0.095214844,1.133789063,0,0,0,0,0,0,0,0,0
1741043616,282516035,base_link,0.001611182,-0.004067523,0.3511890172958374,-0.936294377,0,0,0,0,0,0,0,0,0,5.737304688,15.56396484,-69.82421875,0,0,0,0,0,0,0,0,0,-0.017089844,0.140136719,1.150390625,0,0,0,0,0,0,0,0,0
1741043616,303446792,base_link,-0.000403602,-0.004897873,0.3639090657234192,-0.931421578,0,0,0,0,0,0,0,0,0,2.014160156,-4.211425781,-81.66503906,0,0,0,0,0,0,0,0,0,-0.235839844,0.166503906,0.957519531,0,0,0,0,0,0,0,0,0
1741043616,317648066,base_link,-0.003112399,-0.004710806,0.37834465503692627,-0.925647676,0,0,0,0,0,0,0,0,0,12.51220703,6.103515625,-94.05517578,0,0,0,0,0,0,0,0,0,-0.079101563,0.180175781,0.982421875,0,0,0,0,0,0,0,0,0
1741043616,343201625,base_link,-0.006723513,-0.00535335,0.39438778162002563,-0.918903947,0,0,0,0,0,0,0,0,0,8.728027344,4.638671875,-103.1494141,0,0,0,0,0,0,0,0,0,-0.157226563,0.304199219,0.982421875,0,0,0,0,0,0,0,0,0
1741043616,362960337,base_link,-0.00892125,-0.006504218,0.41118866205215454,-0.911483467,0,0,0,0,0,0,0,0,0,-1.281738281,8.056640625,-107.4829102,0,0,0,0,0,0,0,0,0,-0.210449219,0.317382813,0.945800781,0,0,0,0,0,0,0,0,0
1741043616,382778281,base_link,-0.011027866,-0.008351221,0.42791643738746643,-0.903712451,0,0,0,0,0,0,0,0,0,0.671386719,7.751464844,-104.6142578,0,0,0,0,0,0,0,0,0,-0.189453125,0.248046875,1.001464844,0,0,0,0,0,0,0,0,0
1741043616,402804483,base_link,-0.012966539,-0.008646016,0.44343793392181396,-0.896169603,0,0,0,0,0,0,0,0,0,5.310058594,-3.90625,-95.88623047,0,0,0,0,0,0,0,0,0,-0.256835938,0.237792969,1.089355469,0,0,0,0,0,0,0,0,0
1741043616,422762557,base_link,-0.015455462,-0.009972952,0.4572674334049225,-0.889138997,0,0,0,0,0,0,0,0,0,5.859375,13.12255859,-84.9609375,0,0,0,0,0,0,0,0,0,-0.133789063,0.234863281,1.020019531,0,0,0,0,0,0,0,0,0
1741043616,443211644,base_link,-0.016866222,-0.009324869,0.46910011768341064,-0.882934749,0,0,0,0,0,0,0,0,0,1.220703125,-13.06152344,-71.04492188,0,0,0,0,0,0,0,0,0,-0.221191406,0.247558594,0.952636719,0,0,0,0,0,0,0,0,0
1741043616,458030557,base_link,-0.017900808,-0.008322587,0.47886598110198975,-0.877666056,0,0,0,0,0,0,0,0,0,-0.732421875,0.732421875,-57.25097656,0,0,0,0,0,0,0,0,0,-0.083007813,0.243164063,1.013671875,0,0,0,0,0,0,0,0,0
1741043616,482609257,base_link,-0.019917628,-0.00769452,0.48615995049476624,-0.873608947,0,0,0,0,0,0,0,0,0,6.408691406,-7.507324219,-42.05322266,0,0,0,0,0,0,0,0,0,-0.124511719,0.224121094,1.072265625,0,0,0,0,0,0,0,0,0
1741043616,502503650,base_link,-0.020947119,-0.006234562,0.49130693078041077,-0.870712221,0,0,0,0,0,0,0,0,0,-1.953125,-4.455566406,-29.90722656,0,0,0,0,0,0,0,0,0,-0.115722656,0.295410156,0.958984375,0,0,0,0,0,0,0,0,0
1741043616,522649854,base_link,-0.022807671,-0.006127204,0.4946810305118561,-0.868753672,0,0,0,0,0,0,0,0,0,7.32421875,-7.995605469,-20.20263672,0,0,0,0,0,0,0,0,0,-0.111816406,0.234863281,1.108886719,0,0,0,0,0,0,0,0,0
1741043616,538231624,base_link,-0.024121922,-0.005539532,0.4971763789653778,-0.867296398,0,0,0,0,0,0,0,0,0,-7.080078125,5.065917969,-15.99121094,0,0,0,0,0,0,0,0,0,-0.064941406,0.304199219,0.922363281,0,0,0,0,0,0,0,0,0
1741043616,562583281,base_link,-0.025060493,-0.005522722,0.4993472993373871,-0.866021752,0,0,0,0,0,0,0,0,0,-2.014160156,-0.732421875,-14.22119141,0,0,0,0,0,0,0,0,0,-0.083496094,0.27734375,1.034179688,0,0,0,0,0,0,0,0,0
1741043616,578491103,base_link,-0.026096029,-0.003986035,0.5014414191246033,-0.864788771,0,0,0,0,0,0,0,0,0,2.990722656,-7.080078125,-13.36669922,0,0,0,0,0,0,0,0,0,-0.102539063,0.256347656,1.058105469,0,0,0,0,0,0,0,0,0
1741043616,597665424,base_link,-0.027299264,-0.003038624,0.503422201,-0.86360383,0,0,0,0,0,0,0,0,0,0.061035156,-4.333496094,-12.20703125,0,0,0,0,0,0,0,0,0,-0.056640625,0.268554688,0.970703125,0,0,0,0,0,0,0,0,0
1741043616,622846435,base_link,-0.02808377,-0.003746854,0.5043410658836365,-0.863039672,0,0,0,0,0,0,0,0,0,-5.310058594,0.732421875,-1.647949219,0,0,0,0,0,0,0,0,0,-0.189941406,0.126953125,0.985351563,0,0,0,0,0,0,0,0,0
1741043616,642958590,base_link,-0.028516691,-0.005327052,0.5044523477554321,-0.862952054,0,0,0,0,0,0,0,0,0,1.037597656,-2.685546875,1.159667969,0,0,0,0,0,0,0,0,0,-0.145996094,0.0390625,1.1015625,0,0,0,0,0,0,0,0,0
1741043616,658811915,base_link,-0.029312996,-0.004503653,0.5044066309928894,-0.862956822,0,0,0,0,0,0,0,0,0,0.305175781,-3.662109375,-0.671386719,0,0,0,0,0,0,0,0,0,-0.014160156,0.081542969,1.01953125,0,0,0,0,0,0,0,0,0
1741043616,682848945,base_link,-0.029833499,-0.002362981,0.5045557618141174,-0.862860262,0,0,0,0,0,0,0,0,0,2.990722656,-1.647949219,-2.258300781,0,0,0,0,0,0,0,0,0,0.020019531,0.133300781,0.976074219,0,0,0,0,0,0,0,0,0
1741043616,702947244,base_link,-0.031634983,-0.001236422,0.5048394799232483,-0.862632513,0,0,0,0,0,0,0,0,0,1.953125,8.605957031,-3.540039063,0,0,0,0,0,0,0,0,0,0.051269531,0.217773438,1.061035156,0,0,0,0,0,0,0,0,0
1741043616,722473313,base_link,-0.032907795,0.000353565,0.5051890015602112,-0.862381101,0,0,0,0,0,0,0,0,0,2.685546875,-2.807617188,-1.892089844,0,0,0,0,0,0,0,0,0,0.012695313,0.223632813,1.061523438,0,0,0,0,0,0,0,0,0
1741043616,743996300,base_link,-0.033949643,0.001139591,0.5054714679718018,-0.862174451,0,0,0,0,0,0,0,0,0,-1.892089844,6.958007813,-0.122070313,0,0,0,0,0,0,0,0,0,0.047363281,0.156738281,0.95703125,0,0,0,0,0,0,0,0,0
1741043616,760370878,base_link,-0.035031091,0.00231506,0.5057299137115479,-0.861977279,0,0,0,0,0,0,0,0,0,1.586914063,-1.403808594,-0.671386719,0,0,0,0,0,0,0,0,0,-0.014160156,0.161621094,1.005859375,0,0,0,0,0,0,0,0,0
1741043616,782991765,base_link,-0.036119629,0.003919804,0.5059868097305298,-0.861775756,0,0,0,0,0,0,0,0,0,-2.685546875,-3.90625,-0.183105469,0,0,0,0,0,0,0,0,0,-0.01171875,0.197753906,0.989257813,0,0,0,0,0,0,0,0,0
1741043616,802458889,base_link,-0.036729909,0.005636552,0.5057162046432495,-0.861899316,0,0,0,0,0,0,0,0,0,0.122070313,-3.051757813,4.39453125,0,0,0,0,0,0,0,0,0,0.006835938,0.16015625,1.064453125,0,0,0,0,0,0,0,0,0
1741043616,822560868,base_link,-0.037858453,0.0085175,0.5045799016952515,-0.862492561,0,0,0,0,0,0,0,0,0,7.019042969,-9.094238281,11.71875,0,0,0,0,0,0,0,0,0,0.001953125,0.16015625,1.084960938,0,0,0,0,0,0,0,0,0
1741043616,843231462,base_link,-0.038380228,0.010806350968778133,0.5019553899765015,-0.863974035,0,0,0,0,0,0,0,0,0,-0.48828125,-2.746582031,20.26367188,0,0,0,0,0,0,0,0,0,0.049804688,0.130859375,0.959472656,0,0,0,0,0,0,0,0,0
1741043616,862628057,base_link,-0.037577331,0.012746118009090424,0.4982937276363373,-0.866099775,0,0,0,0,0,0,0,0,0,-0.305175781,-2.990722656,26.3671875,0,0,0,0,0,0,0,0,0,0.04296875,0.079101563,0.966796875,0,0,0,0,0,0,0,0,0
1741043616,882817814,base_link,-0.036310919,0.014907658100128174,0.49389564990997314,-0.86863488,0,0,0,0,0,0,0,0,0,0.915527344,-3.41796875,30.33447266,0,0,0,0,0,0,0,0,0,0.026367188,0.080566406,1.002441406,0,0,0,0,0,0,0,0,0
1741043616,904419297,base_link,-0.035607062,0.017402691766619682,0.4891131818294525,-0.871319413,0,0,0,0,0,0,0,0,0,-0.183105469,-1.892089844,31.92138672,0,0,0,0,0,0,0,0,0,0.055664063,0.103515625,1.024414063,0,0,0,0,0,0,0,0,0
1741043616,917961557,base_link,-0.034887914,0.019511062651872635,0.48427915573120117,-0.874000013,0,0,0,0,0,0,0,0,0,0.9765625,-2.197265625,31.79931641,0,0,0,0,0,0,0,0,0,0.075683594,0.095214844,1.053710938,0,0,0,0,0,0,0,0,0
1741043616,947584056,base_link,-0.032741908,0.020823832601308823,0.47827959060668945,-0.877350032,0,0,0,0,0,0,0,0,0,-5.004882813,-3.540039063,32.16552734,0,0,0,0,0,0,0,0,0,0.029785156,0.004882813,0.972167969,0,0,0,0,0,0,0,0,0
1741043616,964154188,base_link,-0.030721536,0.020599951967597008,0.47486940026283264,-0.879278719,0,0,0,0,0,0,0,0,0,-2.197265625,-1.525878906,29.23583984,0,0,0,0,0,0,0,0,0,0.0625,-0.083496094,1.025878906,0,0,0,0,0,0,0,0,0
1741043616,982631734,base_link,-0.028867705,0.020338437,0.4700087904930115,-0.881955087,0,0,0,0,0,0,0,0,0,-0.122070313,0.366210938,31.61621094,0,0,0,0,0,0,0,0,0,0.047851563,-0.033691406,1.018066406,0,0,0,0,0,0,0,0,0
1741043616,998299425,base_link,-0.026753241,0.020030444487929344,0.46492260694503784,-0.884720325,0,0,0,0,0,0,0,0,0,-1.342773438,-4.272460938,31.73828125,0,0,0,0,0,0,0,0,0,0.029296875,-0.036621094,0.96484375,0,0,0,0,0,0,0,0,0
1741043617,22474408,base_link,-0.02430059,0.019560299813747406,0.4596920907497406,-0.887530386,0,0,0,0,0,0,0,0,0,-0.610351563,-2.44140625,33.26416016,0,0,0,0,0,0,0,0,0,0.037109375,-0.052734375,0.977539063,0,0,0,0,0,0,0,0,0
1741043617,43246923,base_link,-0.022037962,0.019091073,0.45448732376098633,-0.890275955,0,0,0,0,0,0,0,0,0,0.244140625,-2.990722656,33.02001953,0,0,0,0,0,0,0,0,0,0.02734375,-0.064453125,1.020996094,0,0,0,0,0,0,0,0,0
1741043617,58112749,base_link,-0.020297114,0.018101153895258904,0.44923946261405945,-0.892997384,0,0,0,0,0,0,0,0,0,0.549316406,1.46484375,33.44726563,0,0,0,0,0,0,0,0,0,-0.000488281,-0.052734375,1.036132813,0,0,0,0,0,0,0,0,0
1741043617,82686681,base_link,-0.018092494,0.017265057,0.44453805685043335,-0.895410776,0,0,0,0,0,0,0,0,0,-7.629394531,-0.915527344,28.68652344,0,0,0,0,0,0,0,0,0,-0.015136719,-0.046875,0.989746094,0,0,0,0,0,0,0,0,0
1741043617,102473873,base_link,-0.015804432,0.015763118863105774,0.44062915444374084,-0.897411704,0,0,0,0,0,0,0,0,0,-6.8359375,6.530761719,24.4140625,0,0,0,0,0,0,0,0,0,-0.000488281,-0.03515625,1.010742188,0,0,0,0,0,0,0,0,0
1741043617,122501643,base_link,-0.014288513,0.013676228933036327,0.43784263730049133,-0.89883405,0,0,0,0,0,0,0,0,0,-1.586914063,4.638671875,16.35742188,0,0,0,0,0,0,0,0,0,-0.015136719,-0.060546875,1.05859375,0,0,0,0,0,0,0,0,0
1741043617,142362436,base_link,-0.01355986,0.012548970058560371,0.436180443,-0.899669588,0,0,0,0,0,0,0,0,0,-0.244140625,-0.793457031,9.033203125,0,0,0,0,0,0,0,0,0,-0.049804688,-0.025878906,1.016601563,0,0,0,0,0,0,0,0,0
1741043617,162556256,base_link,-0.012627833,0.01129877,0.4351417124271393,-0.900202513,0,0,0,0,0,0,0,0,0,-2.380371094,-2.9296875,6.530761719,0,0,0,0,0,0,0,0,0,-0.053222656,-0.016601563,0.961914063,0,0,0,0,0,0,0,0,0
1741043617,182523642,base_link,-0.011429534,0.010618943,0.4345434010028839,-0.900515854,0,0,0,0,0,0,0,0,0,2.258300781,6.469726563,3.479003906,0,0,0,0,0,0,0,0,0,0.05859375,-0.020996094,1.114746094,0,0,0,0,0,0,0,0,0
1741043617,202819703,base_link,-0.010679701,0.01038902,0.43409109115600586,-0.900745809,0,0,0,0,0,0,0,0,0,3.234863281,0.122070313,4.39453125,0,0,0,0,0,0,0,0,0,0.002441406,-0.011230469,1.05859375,0,0,0,0,0,0,0,0,0
1741043617,222477709,base_link,-0.009461448,0.009351413,0.43332064151763916,-0.901141763,0,0,0,0,0,0,0,0,0,-4.638671875,1.220703125,5.798339844,0,0,0,0,0,0,0,0,0,0.004394531,-0.000488281,0.932128906,0,0,0,0,0,0,0,0,0
1741043617,242717034,base_link,-0.00724597,0.009453995,0.4322914183139801,-0.901655316,0,0,0,0,0,0,0,0,0,-1.953125,1.098632813,6.408691406,0,0,0,0,0,0,0,0,0,0.034667969,-0.010253906,1.00390625,0,0,0,0,0,0,0,0,0
1741043617,257610796,base_link,-0.005548149,0.008740472,0.431121826,-0.902234435,0,0,0,0,0,0,0,0,0,1.647949219,0,7.446289063,0,0,0,0,0,0,0,0,0,0.000488281,-0.02734375,1.039550781,0,0,0,0,0,0,0,0,0
1741043617,282542140,base_link,-0.004672139,0.00773023,0.4299280047416687,-0.902818084,0,0,0,0,0,0,0,0,0,4.455566406,3.41796875,6.958007813,0,0,0,0,0,0,0,0,0,0.014648438,-0.024414063,1.002441406,0,0,0,0,0,0,0,0,0
1741043617,302710808,base_link,-0.004232276,0.006435029,0.42885419726371765,-0.903340876,0,0,0,0,0,0,0,0,0,-0.244140625,-2.319335938,5.737304688,0,0,0,0,0,0,0,0,0,-0.0078125,0.009765625,0.981933594,0,0,0,0,0,0,0,0,0
1741043617,325150157,base_link,-0.004438731,0.006633763,0.4279765784740448,-0.903754592,0,0,0,0,0,0,0,0,0,-3.967285156,-3.295898438,4.455566406,0,0,0,0,0,0,0,0,0,0.010742188,0.016601563,1.035644531,0,0,0,0,0,0,0,0,0
1741043617,342794829,base_link,-0.003585136,0.005574299,0.42702534794807434,-0.904215395,0,0,0,0,0,0,0,0,0,1.708984375,-5.187988281,5.615234375,0,0,0,0,0,0,0,0,0,-0.004882813,-0.009277344,1.083007813,0,0,0,0,0,0,0,0,0
1741043617,362658758,base_link,-0.002686859,0.005944023,0.42607367038726807,-0.904665053,0,0,0,0,0,0,0,0,0,6.042480469,-0.671386719,5.798339844,0,0,0,0,0,0,0,0,0,0.028320313,-0.009277344,1.016113281,0,0,0,0,0,0,0,0,0
1741043617,382734913,base_link,-0.002474499,0.007029575,0.4251411259174347,-0.905096471,0,0,0,0,0,0,0,0,0,1.46484375,2.197265625,6.469726563,0,0,0,0,0,0,0,0,0,0.035644531,0.007324219,0.922363281,0,0,0,0,0,0,0,0,0
1741043617,402830940,base_link,-0.000555284,0.006124842,0.42411425709724426,-0.905587912,0,0,0,0,0,0,0,0,0,-5.554199219,-0.244140625,6.896972656,0,0,0,0,0,0,0,0,0,0,-0.05078125,0.931640625,0,0,0,0,0,0,0,0,0
1741043617,422477394,base_link,0.001251128,0.005789284,0.42340031266212463,-0.905923367,0,0,0,0,0,0,0,0,0,-0.48828125,6.164550781,6.225585938,0,0,0,0,0,0,0,0,0,0.045410156,-0.023925781,1.090332031,0,0,0,0,0,0,0,0,0
1741043617,437899866,base_link,0.002833231,0.004886794,0.4226282835006714,-0.906285524,0,0,0,0,0,0,0,0,0,-3.90625,0.610351563,6.34765625,0,0,0,0,0,0,0,0,0,-0.016113281,-0.080566406,1.051269531,0,0,0,0,0,0,0,0,0
1741043617,462793290,base_link,0.005009721,0.003943176,0.4219377040863037,-0.906602383,0,0,0,0,0,0,0,0,0,-3.723144531,-1.159667969,4.638671875,0,0,0,0,0,0,0,0,0,0.008300781,-0.116699219,0.981933594,0,0,0,0,0,0,0,0,0
1741043617,478190578,base_link,0.006822101,0.003360619,0.42129096388816833,-0.906893611,0,0,0,0,0,0,0,0,0,0.610351563,-2.075195313,2.319335938,0,0,0,0,0,0,0,0,0,0.026367188,-0.120117188,0.991210938,0,0,0,0,0,0,0,0,0
1741043617,498544591,base_link,0.008157655,0.002811907,0.4205362796783447,-0.907234669,0,0,0,0,0,0,0,0,0,0.671386719,-7.629394531,4.150390625,0,0,0,0,0,0,0,0,0,-0.037597656,-0.071777344,0.95703125,0,0,0,0,0,0,0,0,0
1741043617,523023770,base_link,0.009913442,0.001732491,0.4196065664291382,-0.907650352,0,0,0,0,0,0,0,0,0,-5.37109375,-1.953125,4.028320313,0,0,0,0,0,0,0,0,0,0.015136719,-0.078613281,1.002929688,0,0,0,0,0,0,0,0,0
1741043617,543222135,base_link,0.012718651443719864,0.000485256,0.418621302,-0.908071697,0,0,0,0,0,0,0,0,0,-4.8828125,-2.014160156,4.028320313,0,0,0,0,0,0,0,0,0,0.024414063,-0.15625,1.092773438,0,0,0,0,0,0,0,0,0
1741043617,557707765,base_link,0.014074680395424366,-0.000243206,0.4173562526702881,-0.908633947,0,0,0,0,0,0,0,0,0,2.624511719,-5.249023438,7.507324219,0,0,0,0,0,0,0,0,0,-0.032714844,-0.116699219,1.104492188,0,0,0,0,0,0,0,0,0
1741043617,582387522,base_link,0.014630979858338833,0.000289844,0.41644713282585144,-0.90904212,0,0,0,0,0,0,0,0,0,6.774902344,1.831054688,4.211425781,0,0,0,0,0,0,0,0,0,0.083007813,-0.083496094,1.060058594,0,0,0,0,0,0,0,0,0
1741043617,602550750,base_link,0.015410251,0.001943193,0.41572046279907227,-0.909359813,0,0,0,0,0,0,0,0,0,2.319335938,-7.934570313,5.737304688,0,0,0,0,0,0,0,0,0,0.050292969,-0.046875,0.9453125,0,0,0,0,0,0,0,0,0
1741043617,622613432,base_link,0.017254892736673355,0.004041438,0.41386228799819946,-0.910166979,0,0,0,0,0,0,0,0,0,-1.46484375,-4.333496094,14.89257813,0,0,0,0,0,0,0,0,0,0.103515625,-0.045898438,0.946777344,0,0,0,0,0,0,0,0,0
1741043617,642865525,base_link,0.018619170412421227,0.005776819,0.4105824828147888,-0.911615074,0,0,0,0,0,0,0,0,0,-0.732421875,-4.272460938,23.49853516,0,0,0,0,0,0,0,0,0,0.099609375,-0.040527344,1.024414063,0,0,0,0,0,0,0,0,0
1741043617,657685111,base_link,0.019625423476099968,0.008329501,0.4058510363101959,-0.913690627,0,0,0,0,0,0,0,0,0,1.281738281,-3.479003906,32.53173828,0,0,0,0,0,0,0,0,0,0.107421875,-0.017578125,1.05859375,0,0,0,0,0,0,0,0,0
1741043617,682535398,base_link,0.019748151302337646,0.009644182,0.39993444085121155,-0.91628021,0,0,0,0,0,0,0,0,0,5.126953125,1.403808594,40.28320313,0,0,0,0,0,0,0,0,0,0.131347656,-0.028808594,0.98046875,0,0,0,0,0,0,0,0,0
1741043617,704209714,base_link,0.018909778,0.011738423258066177,0.39230114221572876,-0.919567585,0,0,0,0,0,0,0,0,0,1.831054688,-8.544921875,52.06298828,0,0,0,0,0,0,0,0,0,0.029785156,0.019042969,1.018066406,0,0,0,0,0,0,0,0,0
1741043617,722580698,base_link,0.01875828,0.014076998,0.38320493698120117,-0.923365533,0,0,0,0,0,0,0,0,0,-0.671386719,-3.173828125,59.32617188,0,0,0,0,0,0,0,0,0,0.146484375,0.012695313,1.054199219,0,0,0,0,0,0,0,0,0
1741043617,743024633,base_link,0.019833508878946304,0.015551748685538769,0.37351277470588684,-0.927282631,0,0,0,0,0,0,0,0,0,-3.662109375,-0.9765625,60.91308594,0,0,0,0,0,0,0,0,0,0.154296875,-0.008789063,0.931640625,0,0,0,0,0,0,0,0,0
1741043617,762455085,base_link,0.021040044724941254,0.016238782554864883,0.3634222745895386,-0.931245327,0,0,0,0,0,0,0,0,0,-7.568359375,4.39453125,62.80517578,0,0,0,0,0,0,0,0,0,0.104003906,-0.009765625,0.895507813,0,0,0,0,0,0,0,0,0
1741043617,782415271,base_link,0.021521118,0.01630508,0.35284852981567383,-0.935290813,0,0,0,0,0,0,0,0,0,-7.751464844,-8.30078125,65.30761719,0,0,0,0,0,0,0,0,0,0.015625,-0.011230469,1.043945313,0,0,0,0,0,0,0,0,0
1741043617,802319424,base_link,0.022561896592378616,0.017897619,0.3419487178325653,-0.939277291,0,0,0,0,0,0,0,0,0,-4.150390625,-7.32421875,67.50488281,0,0,0,0,0,0,0,0,0,0.075683594,-0.031738281,1.043945313,0,0,0,0,0,0,0,0,0
1741043617,822991169,base_link,0.023655728,0.020176008343696594,0.3308025896549225,-0.943187773,0,0,0,0,0,0,0,0,0,-1.098632813,-1.403808594,68.05419922,0,0,0,0,0,0,0,0,0,0.155273438,-0.014648438,1.020019531,0,0,0,0,0,0,0,0,0
1741043617,842849562,base_link,0.024309733882546425,0.021184245124459267,0.3194913864135742,-0.947040439,0,0,0,0,0,0,0,0,0,-5.859375,-1.892089844,70.25146484,0,0,0,0,0,0,0,0,0,0.125,0.025390625,1.014160156,0,0,0,0,0,0,0,0,0
1741043617,862555601,base_link,0.024564413353800774,0.022536239,0.3078429400920868,-0.95085299,0,0,0,0,0,0,0,0,0,0.122070313,0.732421875,69.70214844,0,0,0,0,0,0,0,0,0,0.149902344,-0.002441406,1.132324219,0,0,0,0,0,0,0,0,0
